Timestamp[Day.Month.Year Hour:Minute:Second:Milisecond],sampleNum,tagLEDC1_PD1,tagLEDC2_PD1,tagLEDC3_PD1,LED1_PPG1,LED2_PPG1,LED3_PPG1,ACC_X[mg],ACC_Y[mg],ACC_Z[mg]
05.10.2024 13:24:44:29,1,2,0,1,122129,87638,130865,13,-676,735
05.10.2024 13:24:44:33,2,2,0,1,122130,87631,130855,11,-675,739
05.10.2024 13:24:44:37,3,2,0,1,122130,87633,130851,9,-682,734
05.10.2024 13:24:44:41,4,2,0,1,122132,87636,130838,8,-685,740
05.10.2024 13:24:44:45,5,2,0,1,122134,87634,130832,12,-681,738
05.10.2024 13:24:44:49,6,2,0,1,122127,87637,130823,10,-681,737
05.10.2024 13:24:44:53,7,2,0,1,122131,87640,130809,13,-676,733
05.10.2024 13:24:44:57,8,2,0,1,122130,87636,130801,10,-676,741
05.10.2024 13:24:44:61,9,2,0,1,122132,87639,130789,11,-679,738
05.10.2024 13:24:44:64,10,2,0,1,122132,87637,130781,8,-679,735
05.10.2024 13:24:44:68,11,2,0,1,122132,87649,130777,10,-682,739
05.10.2024 13:24:44:72,12,2,0,1,122128,87653,130768,12,-680,741
05.10.2024 13:24:44:76,13,2,0,1,122131,87659,130756,8,-683,740
05.10.2024 13:24:44:80,14,2,0,1,122129,87650,130752,8,-684,736
05.10.2024 13:24:44:84,15,2,0,1,122130,87654,130740,12,-686,739
05.10.2024 13:24:44:88,16,2,0,1,122138,87657,130736,16,-676,734
05.10.2024 13:24:44:92,17,2,0,1,122130,87657,130729,8,-678,733
05.10.2024 13:24:44:96,18,2,0,1,122126,87666,130720,11,-673,733
05.10.2024 13:24:44:100,19,2,0,1,122132,87660,130721,9,-678,738
05.10.2024 13:24:44:103,20,2,0,1,122127,87665,130711,12,-679,738
05.10.2024 13:24:44:107,21,2,0,1,122130,87665,130703,8,-684,740
05.10.2024 13:24:44:111,22,2,0,1,122125,87685,130705,14,-679,741
05.10.2024 13:24:44:115,23,2,0,1,122127,87683,130694,9,-680,737
05.10.2024 13:24:44:119,24,2,0,1,122129,87688,130693,11,-681,740
05.10.2024 13:24:44:123,25,2,0,1,122129,87690,130680,10,-677,737
05.10.2024 13:24:44:127,26,2,0,1,122122,87687,130682,11,-677,738
05.10.2024 13:24:44:131,27,2,0,1,122130,87701,130673,9,-677,739
05.10.2024 13:24:44:135,28,2,0,1,122126,87699,130670,6,-679,742
05.10.2024 13:24:44:139,29,2,0,1,122124,87704,130669,12,-678,744
05.10.2024 13:24:44:142,30,2,0,1,122124,87704,130659,10,-679,740
05.10.2024 13:24:44:146,31,2,0,1,122128,87709,130662,11,-680,740
05.10.2024 13:24:44:150,32,2,0,1,122124,87715,130655,6,-679,735
05.10.2024 13:24:44:154,33,2,0,1,122125,87723,130654,17,-680,736
05.10.2024 13:24:44:158,34,2,0,1,122127,87722,130650,11,-677,736
05.10.2024 13:24:44:162,35,2,0,1,122124,87731,130648,15,-681,739
05.10.2024 13:24:44:166,36,2,0,1,122131,87724,130641,14,-679,741
05.10.2024 13:24:44:170,37,2,0,1,122129,87732,130638,10,-683,736
05.10.2024 13:24:44:174,38,2,0,1,122123,87745,130630,9,-677,742
05.10.2024 13:24:44:178,39,2,0,1,122126,87735,130627,14,-683,747
05.10.2024 13:24:44:181,40,2,0,1,122130,87745,130635,9,-678,740
05.10.2024 13:24:44:185,41,2,0,1,122126,87747,130630,11,-678,737
05.10.2024 13:24:44:189,42,2,0,1,122130,87745,130627,11,-674,736
05.10.2024 13:24:44:193,43,2,0,1,122122,87757,130624,13,-676,732
05.10.2024 13:24:44:197,44,2,0,1,122124,87771,130621,7,-675,738
05.10.2024 13:24:44:201,45,2,0,1,122123,87772,130615,6,-676,736
05.10.2024 13:24:44:205,46,2,0,1,122127,87775,130616,12,-676,732
05.10.2024 13:24:44:209,47,2,0,1,122124,87780,130611,8,-682,740
05.10.2024 13:24:44:213,48,2,0,1,122125,87779,130612,7,-678,737
05.10.2024 13:24:44:217,49,2,0,1,122126,87785,130603,7,-680,741
05.10.2024 13:24:44:220,50,2,0,1,122118,87791,130605,4,-678,737
05.10.2024 13:24:44:224,51,2,0,1,122123,87790,130602,6,-674,740
05.10.2024 13:24:44:228,52,2,0,1,122123,87795,130597,9,-673,739
05.10.2024 13:24:44:232,53,2,0,1,122124,87792,130599,9,-675,743
05.10.2024 13:24:44:236,54,2,0,1,122132,87803,130594,7,-681,737
05.10.2024 13:24:44:240,55,2,0,1,122124,87810,130598,13,-680,739
05.10.2024 13:24:44:244,56,2,0,1,122122,87808,130595,4,-679,741
05.10.2024 13:24:44:248,57,2,0,1,122126,87816,130593,10,-679,740
05.10.2024 13:24:44:252,58,2,0,1,122127,87821,130589,8,-683,734
05.10.2024 13:24:44:256,59,2,0,1,122125,87831,130586,9,-676,737
05.10.2024 13:24:44:259,60,2,0,1,122128,87830,130582,7,-676,741
05.10.2024 13:24:44:263,61,2,0,1,122127,87837,130585,9,-675,736
05.10.2024 13:24:44:267,62,2,0,1,122126,87835,130582,6,-679,738
05.10.2024 13:24:44:271,63,2,0,1,122129,87839,130580,7,-681,737
05.10.2024 13:24:44:275,64,2,0,1,122128,87854,130576,2,-680,739
05.10.2024 13:24:44:279,65,2,0,1,122126,87859,130583,7,-680,737
05.10.2024 13:24:44:283,66,2,0,1,122129,87858,130573,9,-681,737
05.10.2024 13:24:44:287,67,2,0,1,122125,87870,130578,6,-685,733
05.10.2024 13:24:44:291,68,2,0,1,122125,87865,130572,11,-678,735
05.10.2024 13:24:44:295,69,2,0,1,122124,87862,130571,11,-674,734
05.10.2024 13:24:44:298,70,2,0,1,122119,87868,130570,12,-682,738
05.10.2024 13:24:44:302,71,2,0,1,122124,87882,130567,10,-680,738
05.10.2024 13:24:44:306,72,2,0,1,122132,87885,130566,7,-679,737
05.10.2024 13:24:44:310,73,2,0,1,122123,87890,130566,10,-682,738
05.10.2024 13:24:44:314,74,2,0,1,122121,87885,130564,8,-683,740
05.10.2024 13:24:44:318,75,2,0,1,122127,87900,130560,7,-680,738
05.10.2024 13:24:44:322,76,2,0,1,122127,87897,130559,10,-681,734
05.10.2024 13:24:44:326,77,2,0,1,122122,87915,130562,11,-677,737
05.10.2024 13:24:44:330,78,2,0,1,122126,87909,130557,12,-681,740
05.10.2024 13:24:44:334,79,2,0,1,122128,87915,130563,11,-682,736
05.10.2024 13:24:44:337,80,2,0,1,122133,87921,130552,14,-684,736
05.10.2024 13:24:44:341,81,2,0,1,122123,87922,130559,12,-682,739
05.10.2024 13:24:44:345,82,2,0,1,122130,87920,130556,8,-678,744
05.10.2024 13:24:44:349,83,2,0,1,122126,87925,130554,13,-678,741
05.10.2024 13:24:44:353,84,2,0,1,122124,87939,130553,10,-681,740
05.10.2024 13:24:44:357,85,2,0,1,122123,87940,130547,11,-678,744
05.10.2024 13:24:44:361,86,2,0,1,122128,87933,130550,12,-679,740
05.10.2024 13:24:44:365,87,2,0,1,122123,87952,130551,11,-673,747
05.10.2024 13:24:44:369,88,2,0,1,122122,87958,130545,11,-676,740
05.10.2024 13:24:44:373,89,2,0,1,122123,87948,130547,11,-676,743
05.10.2024 13:24:44:376,90,2,0,1,122121,87966,130548,10,-676,740
05.10.2024 13:24:44:380,91,2,0,1,122126,87969,130541,13,-676,742
05.10.2024 13:24:44:384,92,2,0,1,122120,87978,130547,10,-675,740
05.10.2024 13:24:44:388,93,2,0,1,122118,87979,130545,15,-674,736
05.10.2024 13:24:44:392,94,2,0,1,122123,87979,130540,15,-673,734
05.10.2024 13:24:44:396,95,2,0,1,122121,87982,130539,7,-674,736
05.10.2024 13:24:44:400,96,2,0,1,122121,88005,130541,10,-674,732
05.10.2024 13:24:44:404,97,2,0,1,122122,87992,130542,8,-674,736
05.10.2024 13:24:44:408,98,2,0,1,122123,87996,130545,2,-680,735
05.10.2024 13:24:44:412,99,2,0,1,122122,88002,130546,4,-678,736
05.10.2024 13:24:44:415,100,2,0,1,122125,88013,130543,8,-679,732
05.10.2024 13:24:44:419,101,2,0,1,122127,88020,130543,4,-684,734
05.10.2024 13:24:44:423,102,2,0,1,122129,88021,130542,3,-678,741
05.10.2024 13:24:44:427,103,2,0,1,122129,88038,130542,5,-683,733
05.10.2024 13:24:44:431,104,2,0,1,122131,88038,130550,4,-686,735
05.10.2024 13:24:44:435,105,2,0,1,122128,88040,130546,3,-687,739
05.10.2024 13:24:44:439,106,2,0,1,122131,88044,130543,6,-688,736
05.10.2024 13:24:44:443,107,2,0,1,122130,88062,130552,9,-691,745
05.10.2024 13:24:44:447,108,2,0,1,122128,88052,130551,10,-692,740
05.10.2024 13:24:44:451,109,2,0,1,122129,88053,130551,11,-686,744
05.10.2024 13:24:44:454,110,2,0,1,122135,88068,130545,13,-685,737
05.10.2024 13:24:44:458,111,2,0,1,122132,88075,130547,7,-685,740
05.10.2024 13:24:44:462,112,2,0,1,122129,88079,130548,7,-680,739
05.10.2024 13:24:44:466,113,2,0,1,122132,88080,130548,9,-678,743
05.10.2024 13:24:44:470,114,2,0,1,122126,88077,130543,11,-683,743
05.10.2024 13:24:44:474,115,2,0,1,122127,88089,130551,9,-689,743
05.10.2024 13:24:44:478,116,2,0,1,122126,88089,130542,19,-675,742
05.10.2024 13:24:44:482,117,2,0,1,122125,88097,130541,17,-677,739
05.10.2024 13:24:44:486,118,2,0,1,122121,88102,130542,12,-671,737
05.10.2024 13:24:44:490,119,2,0,1,122122,88105,130537,14,-667,736
05.10.2024 13:24:44:493,120,2,0,1,122121,88114,130537,17,-667,742
05.10.2024 13:24:44:497,121,2,0,1,122122,88111,130538,15,-676,744
05.10.2024 13:24:44:501,122,2,0,1,122128,88113,130533,19,-674,740
05.10.2024 13:24:44:505,123,2,0,1,122120,88120,130537,19,-676,744
05.10.2024 13:24:44:509,124,2,0,1,122128,88125,130531,16,-675,738
05.10.2024 13:24:44:513,125,2,0,1,122126,88126,130524,10,-668,741
05.10.2024 13:24:44:517,126,2,0,1,122121,88124,130517,13,-670,737
05.10.2024 13:24:44:521,127,2,0,1,122119,88120,130514,14,-670,737
05.10.2024 13:24:44:525,128,2,0,1,122119,88119,130508,13,-671,739
05.10.2024 13:24:44:529,129,2,0,1,122116,88129,130495,12,-672,733
05.10.2024 13:24:44:532,130,2,0,1,122116,88121,130499,9,-672,732
05.10.2024 13:24:44:536,131,2,0,1,122119,88117,130490,11,-674,737
05.10.2024 13:24:44:540,132,2,0,1,122111,88114,130480,7,-677,733
05.10.2024 13:24:44:544,133,2,0,1,122117,88109,130472,5,-681,738
05.10.2024 13:24:44:548,134,2,0,1,122109,88102,130468,6,-687,735
05.10.2024 13:24:44:552,135,2,0,1,122114,88085,130463,5,-685,736
05.10.2024 13:24:44:556,136,2,0,1,122110,88081,130449,10,-683,732
05.10.2024 13:24:44:560,137,2,0,1,122107,88078,130452,5,-684,737
05.10.2024 13:24:44:564,138,2,0,1,122109,88057,130443,4,-686,735
05.10.2024 13:24:44:568,139,2,0,1,122106,88045,130443,3,-690,736
05.10.2024 13:24:44:571,140,2,0,1,122106,88037,130432,6,-689,739
05.10.2024 13:24:44:575,141,2,0,1,122106,88031,130427,5,-688,736
05.10.2024 13:24:44:579,142,2,0,1,122097,88017,130423,7,-684,737
05.10.2024 13:24:44:583,143,2,0,1,122097,88003,130418,6,-690,734
05.10.2024 13:24:44:587,144,2,0,1,122097,87993,130418,8,-685,737
05.10.2024 13:24:44:591,145,2,0,1,122100,87985,130412,6,-684,734
05.10.2024 13:24:44:595,146,2,0,1,122091,87976,130413,7,-683,737
05.10.2024 13:24:44:599,147,2,0,1,122094,87967,130406,3,-682,735
05.10.2024 13:24:44:603,148,2,0,1,122094,87938,130401,6,-684,740
05.10.2024 13:24:44:607,149,2,0,1,122086,87948,130398,5,-683,737
05.10.2024 13:24:44:610,150,2,0,1,122092,87929,130395,7,-685,736
05.10.2024 13:24:44:614,151,2,0,1,122085,87921,130396,12,-678,735
05.10.2024 13:24:44:618,152,2,0,1,122082,87915,130391,8,-678,736
05.10.2024 13:24:44:622,153,2,0,1,122082,87909,130386,10,-674,737
05.10.2024 13:24:44:626,154,2,0,1,122074,87907,130385,13,-670,736
05.10.2024 13:24:44:630,155,2,0,1,122076,87897,130382,15,-676,734
05.10.2024 13:24:44:634,156,2,0,1,122072,87891,130378,12,-674,733
05.10.2024 13:24:44:638,157,2,0,1,122078,87882,130376,7,-678,742
05.10.2024 13:24:44:642,158,2,0,1,122070,87874,130375,10,-679,742
05.10.2024 13:24:44:646,159,2,0,1,122070,87895,130377,8,-676,741
05.10.2024 13:24:44:649,160,2,0,1,122077,87877,130372,4,-675,738
05.10.2024 13:24:44:653,161,2,0,1,122072,87873,130381,13,-675,737
05.10.2024 13:24:44:657,162,2,0,1,122070,87869,130373,11,-673,736
05.10.2024 13:24:44:661,163,2,0,1,122073,87867,130375,10,-673,742
05.10.2024 13:24:44:665,164,2,0,1,122071,87860,130379,12,-673,746
05.10.2024 13:24:44:669,165,2,0,1,122078,87865,130376,10,-672,741
05.10.2024 13:24:44:673,166,2,0,1,122074,87864,130374,10,-676,740
05.10.2024 13:24:44:677,167,2,0,1,122075,87868,130375,11,-679,742
05.10.2024 13:24:44:681,168,2,0,1,122073,87864,130371,4,-684,740
05.10.2024 13:24:44:685,169,2,0,1,122074,87865,130371,7,-678,736
05.10.2024 13:24:44:688,170,2,0,1,122072,87879,130377,13,-679,739
05.10.2024 13:24:44:692,171,2,0,1,122075,87870,130369,8,-683,733
05.10.2024 13:24:44:696,172,2,0,1,122077,87869,130370,9,-682,735
05.10.2024 13:24:44:700,173,2,0,1,122073,87864,130364,14,-677,733
05.10.2024 13:24:44:704,174,2,0,1,122074,87865,130370,9,-681,735
05.10.2024 13:24:44:708,175,2,0,1,122077,87864,130366,12,-688,733
05.10.2024 13:24:44:712,176,2,0,1,122074,87871,130362,8,-685,732
05.10.2024 13:24:44:716,177,2,0,1,122077,87875,130368,9,-688,733
05.10.2024 13:24:44:720,178,2,0,1,122074,87874,130366,9,-688,735
05.10.2024 13:24:44:724,179,2,0,1,122077,87877,130364,9,-689,737
05.10.2024 13:24:44:727,180,2,0,1,122077,87884,130368,11,-683,735
05.10.2024 13:24:44:731,181,2,0,1,122077,87871,130363,7,-683,733
05.10.2024 13:24:44:735,182,2,0,1,122079,87878,130366,8,-681,742
05.10.2024 13:24:44:739,183,2,0,1,122073,87876,130364,8,-684,738
05.10.2024 13:24:44:743,184,2,0,1,122077,87879,130366,8,-681,739
05.10.2024 13:24:44:747,185,2,0,1,122074,87879,130366,6,-678,739
05.10.2024 13:24:44:751,186,2,0,1,122074,87881,130363,6,-681,739
05.10.2024 13:24:44:755,187,2,0,1,122072,87890,130363,9,-670,738
05.10.2024 13:24:44:759,188,2,0,1,122068,87892,130367,8,-672,740
05.10.2024 13:24:44:763,189,2,0,1,122073,87886,130360,10,-667,739
05.10.2024 13:24:44:766,190,2,0,1,122070,87894,130371,14,-670,740
05.10.2024 13:24:44:770,191,2,0,1,122068,87886,130366,12,-670,738
05.10.2024 13:24:44:774,192,2,0,1,122064,87899,130370,9,-674,737
05.10.2024 13:24:44:778,193,2,0,1,122068,87901,130368,9,-677,738
05.10.2024 13:24:44:782,194,2,0,1,122071,87897,130365,9,-675,743
05.10.2024 13:24:44:786,195,2,0,1,122072,87895,130363,9,-672,742
05.10.2024 13:24:44:790,196,2,0,1,122064,87902,130369,10,-674,737
05.10.2024 13:24:44:794,197,2,0,1,122071,87896,130362,10,-671,737
05.10.2024 13:24:44:798,198,2,0,1,122075,87905,130362,8,-674,737
05.10.2024 13:24:44:802,199,2,0,1,122072,87914,130363,12,-679,736
05.10.2024 13:24:44:805,200,2,0,1,122068,87917,130367,7,-680,738
05.10.2024 13:24:44:809,201,2,0,1,122068,87916,130367,14,-683,737
05.10.2024 13:24:44:813,202,2,0,1,122073,87915,130366,11,-682,737
05.10.2024 13:24:44:817,203,2,0,1,122076,87921,130362,8,-683,734
05.10.2024 13:24:44:821,204,2,0,1,122077,87929,130366,9,-682,738
05.10.2024 13:24:44:825,205,2,0,1,122074,87912,130360,7,-686,739
05.10.2024 13:24:44:829,206,2,0,1,122078,87931,130356,12,-687,738
05.10.2024 13:24:44:833,207,2,0,1,122067,87938,130367,14,-682,734
05.10.2024 13:24:44:837,208,2,0,1,122074,87933,130355,11,-682,739
05.10.2024 13:24:44:841,209,2,0,1,122074,87932,130354,7,-688,739
05.10.2024 13:24:44:844,210,2,0,1,122075,87930,130360,5,-688,736
05.10.2024 13:24:44:848,211,2,0,1,122072,87931,130354,7,-686,741
05.10.2024 13:24:44:852,212,2,0,1,122080,87922,130355,11,-685,737
05.10.2024 13:24:44:856,213,2,0,1,122073,87932,130350,10,-683,736
05.10.2024 13:24:44:860,214,2,0,1,122075,87936,130348,13,-683,734
05.10.2024 13:24:44:864,215,2,0,1,122067,87932,130352,8,-679,737
05.10.2024 13:24:44:868,216,2,0,1,122068,87924,130343,10,-676,742
05.10.2024 13:24:44:872,217,2,0,1,122071,87925,130344,11,-681,739
05.10.2024 13:24:44:876,218,2,0,1,122061,87929,130348,4,-681,737
05.10.2024 13:24:44:880,219,2,0,1,122064,87931,130343,10,-676,733
05.10.2024 13:24:44:883,220,2,0,1,122060,87918,130341,6,-679,737
05.10.2024 13:24:44:887,221,2,0,1,122059,87928,130339,9,-673,732
05.10.2024 13:24:44:891,222,2,0,1,122059,87926,130339,11,-674,737
05.10.2024 13:24:44:895,223,2,0,1,122056,87920,130334,12,-678,741
05.10.2024 13:24:44:899,224,2,0,1,122057,87916,130334,12,-674,738
05.10.2024 13:24:44:903,225,2,0,1,122051,87924,130336,14,-675,738
05.10.2024 13:24:44:907,226,2,0,1,122057,87922,130339,8,-677,742
05.10.2024 13:24:44:911,227,2,0,1,122056,87920,130342,9,-680,739
05.10.2024 13:24:44:915,228,2,0,1,122053,87921,130335,11,-677,741
05.10.2024 13:24:44:919,229,2,0,1,122053,87931,130339,9,-678,738
05.10.2024 13:24:44:922,230,2,0,1,122056,87920,130335,14,-678,737
05.10.2024 13:24:44:926,231,2,0,1,122055,87925,130333,14,-677,734
05.10.2024 13:24:44:930,232,2,0,1,122053,87925,130338,12,-678,738
05.10.2024 13:24:44:934,233,2,0,1,122055,87923,130337,12,-678,735
05.10.2024 13:24:44:938,234,2,0,1,122055,87934,130338,6,-681,739
05.10.2024 13:24:44:942,235,2,0,1,122056,87929,130342,10,-683,743
05.10.2024 13:24:44:946,236,2,0,1,122053,87937,130337,13,-685,738
05.10.2024 13:24:44:950,237,2,0,1,122054,87933,130335,10,-683,736
05.10.2024 13:24:44:954,238,2,0,1,122055,87943,130338,11,-683,738
05.10.2024 13:24:44:958,239,2,0,1,122051,87934,130338,10,-683,738
05.10.2024 13:24:44:961,240,2,0,1,122057,87951,130339,11,-682,737
05.10.2024 13:24:44:965,241,2,0,1,122052,87942,130332,16,-683,733
05.10.2024 13:24:44:969,242,2,0,1,122052,87944,130340,8,-680,731
05.10.2024 13:24:44:973,243,2,0,1,122055,87952,130338,10,-681,737
05.10.2024 13:24:44:977,244,2,0,1,122052,87951,130334,3,-682,739
05.10.2024 13:24:44:981,245,2,0,1,122055,87960,130338,7,-676,739
05.10.2024 13:24:44:985,246,2,0,1,122048,87963,130341,9,-625,737
05.10.2024 13:24:44:989,247,2,0,1,122053,87967,130335,9,-678,735
05.10.2024 13:24:44:993,248,2,0,1,122051,87967,130339,9,-679,738
05.10.2024 13:24:44:997,249,2,0,1,122049,87972,130337,11,-678,737
05.10.2024 13:24:45:0,250,2,0,1,122055,87979,130334,10,-676,738
05.10.2024 13:24:45:4,251,2,0,1,122047,87988,130344,6,-681,737
05.10.2024 13:24:45:8,252,2,0,1,122047,87983,130337,8,-680,739
05.10.2024 13:24:45:12,253,2,0,1,122054,87985,130342,7,-684,737
05.10.2024 13:24:45:16,254,2,0,1,122044,87999,130339,8,-686,737
05.10.2024 13:24:45:20,255,2,0,1,122049,87987,130336,10,-682,741
05.10.2024 13:24:45:24,256,2,0,1,122049,87995,130335,5,-679,739
05.10.2024 13:24:45:28,257,2,0,1,122044,87996,130338,11,-677,735
05.10.2024 13:24:45:32,258,2,0,1,122048,88002,130343,9,-675,739
05.10.2024 13:24:45:36,259,2,0,1,122045,88006,130339,8,-681,733
05.10.2024 13:24:45:39,260,2,0,1,122048,88012,130338,4,-685,739
05.10.2024 13:24:45:43,261,2,0,1,122047,88009,130345,9,-676,735
05.10.2024 13:24:45:47,262,2,0,1,122046,88020,130345,7,-683,739
05.10.2024 13:24:45:51,263,2,0,1,122047,88032,130347,9,-683,740
05.10.2024 13:24:45:55,264,2,0,1,122044,88025,130340,8,-680,738
05.10.2024 13:24:45:59,265,2,0,1,122047,88035,130347,10,-677,743
05.10.2024 13:24:45:63,266,2,0,1,122044,88037,130346,9,-679,740
05.10.2024 13:24:45:67,267,2,0,1,122046,88042,130341,14,-678,738
05.10.2024 13:24:45:71,268,2,0,1,122045,88039,130339,10,-681,742
05.10.2024 13:24:45:75,269,2,0,1,122039,88050,130344,12,-681,740
05.10.2024 13:24:45:78,270,2,0,1,122046,88055,130338,9,-676,741
05.10.2024 13:24:45:82,271,2,0,1,122043,88051,130338,8,-678,737
05.10.2024 13:24:45:86,272,2,0,1,122040,88061,130341,11,-686,738
05.10.2024 13:24:45:90,273,2,0,1,122042,88064,130340,11,-676,733
05.10.2024 13:24:45:94,274,2,0,1,122039,88065,130341,11,-677,740
05.10.2024 13:24:45:98,275,2,0,1,122037,88057,130341,10,-673,734
05.10.2024 13:24:45:102,276,2,0,1,122037,88074,130341,8,-673,732
05.10.2024 13:24:45:106,277,2,0,1,122039,88069,130340,8,-679,738
05.10.2024 13:24:45:110,278,2,0,1,122042,88086,130344,9,-681,736
05.10.2024 13:24:45:114,279,2,0,1,122040,88078,130341,6,-682,734
05.10.2024 13:24:45:117,280,2,0,1,122038,88094,130343,6,-683,734
05.10.2024 13:24:45:121,281,2,0,1,122045,88090,130338,8,-682,736
05.10.2024 13:24:45:125,282,2,0,1,122040,88089,130337,8,-682,735
05.10.2024 13:24:45:129,283,2,0,1,122040,88106,130344,11,-678,736
05.10.2024 13:24:45:133,284,2,0,1,122038,88104,130338,7,-678,736
05.10.2024 13:24:45:137,285,2,0,1,122036,88111,130347,11,-678,739
05.10.2024 13:24:45:141,286,2,0,1,122042,88101,130350,7,-685,741
05.10.2024 13:24:45:145,287,2,0,1,122041,88111,130344,7,-684,741
05.10.2024 13:24:45:149,288,2,0,1,122045,88116,130348,9,-684,739
05.10.2024 13:24:45:153,289,2,0,1,122045,88120,130348,15,-681,740
05.10.2024 13:24:45:156,290,2,0,1,122041,88125,130346,6,-679,736
05.10.2024 13:24:45:160,291,2,0,1,122038,88137,130344,9,-674,741
05.10.2024 13:24:45:164,292,2,0,1,122046,88134,130348,9,-682,736
05.10.2024 13:24:45:168,293,2,0,1,122041,88143,130345,8,-680,738
05.10.2024 13:24:45:172,294,2,0,1,122040,88144,130351,9,-680,737
05.10.2024 13:24:45:176,295,2,0,1,122035,88145,130342,14,-682,738
05.10.2024 13:24:45:180,296,2,0,1,122037,88151,130342,8,-686,734
05.10.2024 13:24:45:184,297,2,0,1,122040,88141,130341,9,-683,735
05.10.2024 13:24:45:188,298,2,0,1,122039,88148,130346,13,-683,734
05.10.2024 13:24:45:192,299,2,0,1,122035,88157,130345,12,-678,738
05.10.2024 13:24:45:195,300,2,0,1,122037,88153,130348,14,-676,741
05.10.2024 13:24:45:199,301,2,0,1,122038,88168,130342,11,-678,737
05.10.2024 13:24:45:203,302,2,0,1,122039,88173,130338,14,-681,739
05.10.2024 13:24:45:207,303,2,0,1,122033,88169,130341,11,-679,736
05.10.2024 13:24:45:211,304,2,0,1,122032,88172,130349,12,-680,743
05.10.2024 13:24:45:215,305,2,0,1,122037,88174,130347,10,-679,741
05.10.2024 13:24:45:219,306,2,0,1,122032,88177,130346,13,-680,743
05.10.2024 13:24:45:223,307,2,0,1,122034,88181,130345,13,-680,739
05.10.2024 13:24:45:227,308,2,0,1,122033,88184,130341,10,-673,735
05.10.2024 13:24:45:231,309,2,0,1,122033,88194,130344,16,-674,736
05.10.2024 13:24:45:234,310,2,0,1,122035,88188,130349,12,-672,736
05.10.2024 13:24:45:238,311,2,0,1,122029,88204,130345,8,-674,738
05.10.2024 13:24:45:242,312,2,0,1,122036,88198,130340,9,-674,738
05.10.2024 13:24:45:246,313,2,0,1,122032,88205,130349,11,-678,733
05.10.2024 13:24:45:250,314,2,0,1,122032,88208,130346,10,-683,737
05.10.2024 13:24:45:254,315,2,0,1,122034,88218,130353,7,-678,735
05.10.2024 13:24:45:258,316,2,0,1,122037,88209,130350,11,-679,738
05.10.2024 13:24:45:262,317,2,0,1,122031,88218,130351,9,-681,734
05.10.2024 13:24:45:266,318,2,0,1,122033,88216,130351,14,-679,738
05.10.2024 13:24:45:270,319,2,0,1,122037,88224,130351,12,-679,737
05.10.2024 13:24:45:273,320,2,0,1,122032,88239,130347,12,-680,735
05.10.2024 13:24:45:277,321,2,0,1,122035,88243,130361,8,-683,732
05.10.2024 13:24:45:281,322,2,0,1,122039,88240,130356,6,-687,738
05.10.2024 13:24:45:285,323,2,0,1,122035,88247,130359,13,-683,736
05.10.2024 13:24:45:289,324,2,0,1,122036,88246,130354,11,-681,742
05.10.2024 13:24:45:293,325,2,0,1,122032,88254,130360,10,-679,737
05.10.2024 13:24:45:297,326,2,0,1,122036,88259,130359,8,-683,732
05.10.2024 13:24:45:301,327,2,0,1,122032,88264,130358,15,-678,740
05.10.2024 13:24:45:305,328,2,0,1,122036,88265,130357,11,-678,737
05.10.2024 13:24:45:309,329,2,0,1,122037,88278,130362,8,-679,735
05.10.2024 13:24:45:312,330,2,0,1,122036,88276,130359,13,-681,742
05.10.2024 13:24:45:316,331,2,0,1,122032,88282,130364,6,-679,740
05.10.2024 13:24:45:320,332,2,0,1,122040,88289,130360,9,-681,736
05.10.2024 13:24:45:324,333,2,0,1,122039,88288,130362,10,-678,737
05.10.2024 13:24:45:328,334,2,0,1,122037,88290,130355,14,-672,737
05.10.2024 13:24:45:332,335,2,0,1,122036,88298,130360,9,-677,738
05.10.2024 13:24:45:336,336,2,0,1,122039,88295,130356,13,-673,740
05.10.2024 13:24:45:340,337,2,0,1,122036,88293,130362,15,-675,738
05.10.2024 13:24:45:344,338,2,0,1,122034,88299,130360,11,-678,742
05.10.2024 13:24:45:348,339,2,0,1,122036,88302,130364,11,-680,738
05.10.2024 13:24:45:351,340,2,0,1,122038,88303,130359,18,-674,738
05.10.2024 13:24:45:355,341,2,0,1,122035,88306,130356,15,-683,739
05.10.2024 13:24:45:359,342,2,0,1,122033,88307,130366,14,-677,735
05.10.2024 13:24:45:363,343,2,0,1,122036,88316,130354,14,-675,733
05.10.2024 13:24:45:367,344,2,0,1,122036,88310,130349,15,-675,732
05.10.2024 13:24:45:371,345,2,0,1,122035,88318,130347,16,-674,736
05.10.2024 13:24:45:375,346,2,0,1,122033,88308,130343,12,-680,733
05.10.2024 13:24:45:379,347,2,0,1,122033,88311,130343,11,-683,730
05.10.2024 13:24:45:383,348,2,0,1,122031,88310,130330,8,-684,733
05.10.2024 13:24:45:387,349,2,0,1,122030,88308,130330,16,-680,736
05.10.2024 13:24:45:390,350,2,0,1,122027,88296,130323,16,-682,735
05.10.2024 13:24:45:394,351,2,0,1,122023,88300,130320,11,-679,738
05.10.2024 13:24:45:398,352,2,0,1,122020,88289,130307,14,-681,732
05.10.2024 13:24:45:402,353,2,0,1,122019,88278,130301,7,-681,734
05.10.2024 13:24:45:406,354,2,0,1,122018,88274,130301,4,-683,734
05.10.2024 13:24:45:410,355,2,0,1,122019,88264,130299,7,-681,736
05.10.2024 13:24:45:414,356,2,0,1,122018,88257,130287,5,-682,733
05.10.2024 13:24:45:418,357,2,0,1,122016,88248,130284,6,-687,739
05.10.2024 13:24:45:422,358,2,0,1,122017,88224,130284,8,-681,733
05.10.2024 13:24:45:426,359,2,0,1,122006,88223,130280,10,-678,736
05.10.2024 13:24:45:429,360,2,0,1,122008,88213,130272,9,-683,732
05.10.2024 13:24:45:433,361,2,0,1,122012,88207,130274,8,-679,739
05.10.2024 13:24:45:437,362,2,0,1,122008,88200,130263,8,-682,736
05.10.2024 13:24:45:441,363,2,0,1,122007,88183,130262,9,-680,733
05.10.2024 13:24:45:445,364,2,0,1,122006,88171,130262,7,-684,738
05.10.2024 13:24:45:449,365,2,0,1,121999,88174,130264,6,-681,737
05.10.2024 13:24:45:453,366,2,0,1,121999,88168,130260,11,-682,733
05.10.2024 13:24:45:457,367,2,0,1,122005,88157,130256,4,-682,732
05.10.2024 13:24:45:461,368,2,0,1,121997,88152,130253,11,-677,736
05.10.2024 13:24:45:465,369,2,0,1,121994,88140,130256,6,-677,736
05.10.2024 13:24:45:468,370,2,0,1,121995,88144,130250,11,-684,738
05.10.2024 13:24:45:472,371,2,0,1,122000,88135,130256,13,-680,734
05.10.2024 13:24:45:476,372,2,0,1,121996,88123,130253,10,-682,739
05.10.2024 13:24:45:480,373,2,0,1,121995,88122,130253,8,-686,735
05.10.2024 13:24:45:484,374,2,0,1,121997,88116,130249,12,-685,738
05.10.2024 13:24:45:488,375,2,0,1,121994,88124,130251,13,-684,733
05.10.2024 13:24:45:492,376,2,0,1,121998,88104,130249,13,-680,740
05.10.2024 13:24:45:496,377,2,0,1,121992,88108,130255,14,-677,741
05.10.2024 13:24:45:500,378,2,0,1,121997,88111,130247,10,-677,740
05.10.2024 13:24:45:504,379,2,0,1,121990,88108,130256,9,-679,739
05.10.2024 13:24:45:507,380,2,0,1,121993,88101,130250,14,-683,740
05.10.2024 13:24:45:511,381,2,0,1,121994,88104,130252,16,-682,738
05.10.2024 13:24:45:515,382,2,0,1,121989,88094,130248,12,-682,742
05.10.2024 13:24:45:519,383,2,0,1,121990,88096,130251,11,-683,740
05.10.2024 13:24:45:523,384,2,0,1,121988,88099,130251,8,-678,739
05.10.2024 13:24:45:527,385,2,0,1,121989,88091,130254,11,-677,733
05.10.2024 13:24:45:531,386,2,0,1,121990,88090,130250,9,-676,738
05.10.2024 13:24:45:535,387,2,0,1,121990,88095,130252,14,-674,740
05.10.2024 13:24:45:539,388,2,0,1,121986,88091,130248,13,-681,737
05.10.2024 13:24:45:543,389,2,0,1,121986,88090,130252,7,-678,742
05.10.2024 13:24:45:546,390,2,0,1,121991,88086,130250,12,-677,736
05.10.2024 13:24:45:550,391,2,0,1,121992,88095,130247,12,-681,732
05.10.2024 13:24:45:554,392,2,0,1,121986,88098,130253,14,-689,737
05.10.2024 13:24:45:558,393,2,0,1,121991,88095,130254,10,-685,734
05.10.2024 13:24:45:562,394,2,0,1,121986,88101,130242,10,-680,732
05.10.2024 13:24:45:566,395,2,0,1,121984,88091,130246,13,-678,738
05.10.2024 13:24:45:570,396,2,0,1,121988,88090,130250,12,-681,738
05.10.2024 13:24:45:574,397,2,0,1,121986,88093,130252,9,-681,736
05.10.2024 13:24:45:578,398,2,0,1,121991,88098,130253,11,-685,737
05.10.2024 13:24:45:582,399,2,0,1,121989,88088,130256,9,-685,742
05.10.2024 13:24:45:585,400,2,0,1,121991,88091,130252,13,-688,741
05.10.2024 13:24:45:589,401,2,0,1,121991,88096,130257,8,-687,738
05.10.2024 13:24:45:593,402,2,0,1,121986,88099,130261,10,-681,735
05.10.2024 13:24:45:597,403,2,0,1,121989,88104,130261,14,-683,736
05.10.2024 13:24:45:601,404,2,0,1,121985,88102,130255,15,-677,739
05.10.2024 13:24:45:605,405,2,0,1,121985,88111,130259,14,-678,736
05.10.2024 13:24:45:609,406,2,0,1,121985,88100,130261,13,-679,734
05.10.2024 13:24:45:613,407,2,0,1,121992,88106,130263,13,-682,737
05.10.2024 13:24:45:617,408,2,0,1,121988,88110,130260,12,-680,737
05.10.2024 13:24:45:621,409,2,0,1,121990,88110,130264,9,-681,736
05.10.2024 13:24:45:624,410,2,0,1,121988,88111,130259,10,-682,734
05.10.2024 13:24:45:628,411,2,0,1,121990,88115,130260,13,-682,732
05.10.2024 13:24:45:632,412,2,0,1,121988,88114,130266,11,-680,736
05.10.2024 13:24:45:636,413,2,0,1,121989,88119,130260,12,-681,733
05.10.2024 13:24:45:640,414,2,0,1,121983,88121,130269,9,-684,735
05.10.2024 13:24:45:644,415,2,0,1,121985,88113,130260,15,-683,738
05.10.2024 13:24:45:648,416,2,0,1,121990,88121,130263,11,-681,741
05.10.2024 13:24:45:652,417,2,0,1,121990,88128,130266,8,-687,737
05.10.2024 13:24:45:656,418,2,0,1,121988,88116,130259,13,-682,737
05.10.2024 13:24:45:660,419,2,0,1,121987,88129,130260,12,-688,736
05.10.2024 13:24:45:663,420,2,0,1,121987,88121,130259,14,-680,735
05.10.2024 13:24:45:667,421,2,0,1,121985,88121,130259,12,-678,740
05.10.2024 13:24:45:671,422,2,0,1,121985,88114,130259,12,-673,736
05.10.2024 13:24:45:675,423,2,0,1,121988,88119,130259,9,-681,737
05.10.2024 13:24:45:679,424,2,0,1,121981,88115,130255,9,-681,737
05.10.2024 13:24:45:683,425,2,0,1,121981,88120,130257,14,-684,739
05.10.2024 13:24:45:687,426,2,0,1,121975,88123,130258,13,-683,740
05.10.2024 13:24:45:691,427,2,0,1,121983,88122,130261,8,-680,738
05.10.2024 13:24:45:695,428,2,0,1,121980,88115,130248,12,-681,737
05.10.2024 13:24:45:699,429,2,0,1,121975,88115,130249,13,-682,732
05.10.2024 13:24:45:702,430,2,0,1,121980,88117,130248,12,-680,737
05.10.2024 13:24:45:706,431,2,0,1,121974,88117,130250,9,-676,741
05.10.2024 13:24:45:710,432,2,0,1,121974,88101,130242,9,-681,737
05.10.2024 13:24:45:714,433,2,0,1,121981,88109,130245,7,-679,735
05.10.2024 13:24:45:718,434,2,0,1,121974,88105,130248,14,-680,738
05.10.2024 13:24:45:722,435,2,0,1,121975,88116,130248,12,-676,734
05.10.2024 13:24:45:726,436,2,0,1,121977,88112,130245,15,-678,738
05.10.2024 13:24:45:730,437,2,0,1,121981,88105,130244,10,-677,738
05.10.2024 13:24:45:734,438,2,0,1,121975,88107,130245,13,-680,737
05.10.2024 13:24:45:738,439,2,0,1,121976,88101,130246,12,-681,739
05.10.2024 13:24:45:741,440,2,0,1,121977,88104,130247,12,-683,734
05.10.2024 13:24:45:745,441,2,0,1,121979,88105,130249,10,-687,737
05.10.2024 13:24:45:749,442,2,0,1,121977,88101,130249,7,-681,736
05.10.2024 13:24:45:753,443,2,0,1,121975,88105,130250,11,-685,744
05.10.2024 13:24:45:757,444,2,0,1,121979,88102,130245,15,-682,737
05.10.2024 13:24:45:761,445,2,0,1,121974,88096,130241,8,-680,735
05.10.2024 13:24:45:765,446,2,0,1,121971,88094,130241,14,-680,736
05.10.2024 13:24:45:769,447,2,0,1,121973,88107,130240,15,-686,735
05.10.2024 13:24:45:773,448,2,0,1,121967,88111,130240,15,-681,737
05.10.2024 13:24:45:777,449,2,0,1,121970,88108,130241,15,-681,737
05.10.2024 13:24:45:780,450,2,0,1,121970,88097,130243,10,-684,732
05.10.2024 13:24:45:784,451,2,0,1,121977,88110,130247,12,-690,732
05.10.2024 13:24:45:788,452,2,0,1,121974,88108,130250,10,-687,737
05.10.2024 13:24:45:792,453,2,0,1,121973,88121,130243,11,-683,738
05.10.2024 13:24:45:796,454,2,0,1,121974,88112,130248,14,-687,739
05.10.2024 13:24:45:800,455,2,0,1,121978,88111,130244,7,-682,738
05.10.2024 13:24:45:804,456,2,0,1,121970,88121,130254,13,-681,735
05.10.2024 13:24:45:808,457,2,0,1,121972,88112,130248,14,-684,738
05.10.2024 13:24:45:812,458,2,0,1,121971,88119,130255,11,-681,734
05.10.2024 13:24:45:816,459,2,0,1,121973,88123,130249,11,-685,735
05.10.2024 13:24:45:819,460,2,0,1,121972,88124,130255,12,-683,737
05.10.2024 13:24:45:823,461,2,0,1,121976,88128,130254,11,-688,741
05.10.2024 13:24:45:827,462,2,0,1,121970,88123,130252,12,-681,734
05.10.2024 13:24:45:831,463,2,0,1,121977,88131,130254,14,-677,734
05.10.2024 13:24:45:835,464,2,0,1,121975,88126,130249,11,-675,738
05.10.2024 13:24:45:839,465,2,0,1,121975,88129,130253,8,-684,741
05.10.2024 13:24:45:843,466,2,0,1,121978,88135,130248,14,-679,735
05.10.2024 13:24:45:847,467,2,0,1,121976,88132,130256,11,-682,736
05.10.2024 13:24:45:851,468,2,0,1,121975,88138,130258,8,-676,735
05.10.2024 13:24:45:855,469,2,0,1,121976,88139,130257,17,-686,736
05.10.2024 13:24:45:858,470,2,0,1,121975,88141,130257,9,-682,736
05.10.2024 13:24:45:862,471,2,0,1,121970,88136,130256,13,-675,739
05.10.2024 13:24:45:866,472,2,0,1,121973,88143,130254,15,-681,737
05.10.2024 13:24:45:870,473,2,0,1,121976,88146,130256,11,-678,737
05.10.2024 13:24:45:874,474,2,0,1,121973,88152,130259,11,-678,737
05.10.2024 13:24:45:878,475,2,0,1,121972,88151,130257,10,-689,737
05.10.2024 13:24:45:882,476,2,0,1,121974,88161,130254,12,-687,738
05.10.2024 13:24:45:886,477,2,0,1,121973,88158,130256,11,-684,741
05.10.2024 13:24:45:890,478,2,0,1,121971,88165,130259,8,-682,738
05.10.2024 13:24:45:894,479,2,0,1,121978,88161,130258,10,-681,732
05.10.2024 13:24:45:897,480,2,0,1,121973,88164,130263,16,-678,736
05.10.2024 13:24:45:901,481,2,0,1,121974,88167,130264,7,-679,736
05.10.2024 13:24:45:905,482,2,0,1,121975,88173,130262,15,-684,734
05.10.2024 13:24:45:909,483,2,0,1,121975,88175,130265,12,-688,740
05.10.2024 13:24:45:913,484,2,0,1,121972,88180,130259,8,-689,735
05.10.2024 13:24:45:917,485,2,0,1,121968,88175,130268,9,-684,738
05.10.2024 13:24:45:921,486,2,0,1,121975,88185,130269,8,-686,736
05.10.2024 13:24:45:925,487,2,0,1,121972,88194,130273,14,-686,738
05.10.2024 13:24:45:929,488,2,0,1,121973,88192,130266,17,-683,734
05.10.2024 13:24:45:933,489,2,0,1,121974,88196,130267,14,-686,732
05.10.2024 13:24:45:936,490,2,0,1,121974,88196,130268,14,-684,735
05.10.2024 13:24:45:940,491,2,0,1,121978,88204,130263,10,-682,736
05.10.2024 13:24:45:944,492,2,0,1,121973,88198,130266,9,-682,737
05.10.2024 13:24:45:948,493,2,0,1,121972,88212,130267,11,-686,737
05.10.2024 13:24:45:952,494,2,0,1,121972,88209,130269,9,-688,738
05.10.2024 13:24:45:956,495,2,0,1,121978,88207,130271,11,-685,737
05.10.2024 13:24:45:960,496,2,0,1,121973,88218,130272,10,-682,738
05.10.2024 13:24:45:964,497,2,0,1,121971,88214,130266,12,-681,736
05.10.2024 13:24:45:968,498,2,0,1,121972,88222,130269,9,-681,733
05.10.2024 13:24:45:972,499,2,0,1,121973,88230,130266,9,-681,733
05.10.2024 13:24:45:975,500,2,0,1,121968,88228,130275,13,-677,735
05.10.2024 13:24:45:979,501,2,0,1,121973,88236,130269,10,-682,738
05.10.2024 13:24:45:983,502,2,0,1,121964,88242,130273,12,-679,740
05.10.2024 13:24:45:987,503,2,0,1,121968,88228,130268,10,-682,738
05.10.2024 13:24:45:991,504,2,0,1,121970,88233,130268,17,-678,741
05.10.2024 13:24:45:995,505,2,0,1,121968,88243,130266,11,-676,733
05.10.2024 13:24:45:999,506,2,0,1,121964,88238,130271,9,-679,740
05.10.2024 13:24:46:3,507,2,0,1,121965,88248,130271,12,-671,738
05.10.2024 13:24:46:7,508,2,0,1,121964,88252,130268,10,-676,736
05.10.2024 13:24:46:11,509,2,0,1,121966,88253,130273,12,-678,741
05.10.2024 13:24:46:14,510,2,0,1,121967,88252,130271,7,-677,735
05.10.2024 13:24:46:18,511,2,0,1,121964,88265,130280,10,-677,734
05.10.2024 13:24:46:22,512,2,0,1,121964,88253,130276,10,-678,734
05.10.2024 13:24:46:26,513,2,0,1,121970,88264,130280,10,-679,735
05.10.2024 13:24:46:30,514,2,0,1,121968,88274,130274,6,-679,734
05.10.2024 13:24:46:34,515,2,0,1,121970,88276,130278,9,-677,732
05.10.2024 13:24:46:38,516,2,0,1,121970,88267,130279,11,-679,728
05.10.2024 13:24:46:42,517,2,0,1,121970,88283,130273,11,-679,735
05.10.2024 13:24:46:46,518,2,0,1,121972,88283,130286,7,-686,732
05.10.2024 13:24:46:50,519,2,0,1,121972,88288,130286,10,-683,736
05.10.2024 13:24:46:53,520,2,0,1,121971,88287,130285,10,-687,737
05.10.2024 13:24:46:57,521,2,0,1,121970,88294,130286,7,-693,734
05.10.2024 13:24:46:61,522,2,0,1,121970,88297,130290,10,-684,735
05.10.2024 13:24:46:65,523,2,0,1,121975,88307,130287,12,-683,734
05.10.2024 13:24:46:69,524,2,0,1,121972,88302,130292,12,-683,734
05.10.2024 13:24:46:73,525,2,0,1,121979,88304,130290,5,-682,734
05.10.2024 13:24:46:77,526,2,0,1,121978,88310,130293,13,-687,737
05.10.2024 13:24:46:81,527,2,0,1,121978,88309,130286,5,-686,737
05.10.2024 13:24:46:85,528,2,0,1,121974,88314,130294,10,-688,733
05.10.2024 13:24:46:89,529,2,0,1,121973,88314,130292,7,-686,740
05.10.2024 13:24:46:92,530,2,0,1,121977,88313,130293,11,-685,737
05.10.2024 13:24:46:96,531,2,0,1,121977,88330,130291,12,-682,739
05.10.2024 13:24:46:100,532,2,0,1,121976,88320,130294,11,-677,739
05.10.2024 13:24:46:104,533,2,0,1,121977,88324,130295,14,-680,735
05.10.2024 13:24:46:108,534,2,0,1,121975,88333,130287,11,-680,738
05.10.2024 13:24:46:112,535,2,0,1,121977,88339,130292,13,-684,737
05.10.2024 13:24:46:116,536,2,0,1,121975,88335,130292,11,-682,740
05.10.2024 13:24:46:120,537,2,0,1,121974,88342,130295,14,-683,737
05.10.2024 13:24:46:124,538,2,0,1,121971,88344,130290,14,-679,734
05.10.2024 13:24:46:128,539,2,0,1,121975,88346,130295,19,-677,735
05.10.2024 13:24:46:131,540,2,0,1,121979,88351,130297,11,-673,739
05.10.2024 13:24:46:135,541,2,0,1,121975,88346,130295,16,-677,736
05.10.2024 13:24:46:139,542,2,0,1,121978,88357,130295,14,-676,733
05.10.2024 13:24:46:143,543,2,0,1,121976,88361,130288,15,-678,737
05.10.2024 13:24:46:147,544,2,0,1,121977,88357,130292,10,-679,739
05.10.2024 13:24:46:151,545,2,0,1,121974,88358,130283,15,-683,735
05.10.2024 13:24:46:155,546,2,0,1,121980,88354,130284,14,-682,736
05.10.2024 13:24:46:159,547,2,0,1,121977,88354,130279,17,-684,739
05.10.2024 13:24:46:163,548,2,0,1,121969,88352,130276,9,-677,732
05.10.2024 13:24:46:167,549,2,0,1,121968,88345,130268,9,-677,732
05.10.2024 13:24:46:170,550,2,0,1,121971,88342,130264,11,-683,734
05.10.2024 13:24:46:174,551,2,0,1,121966,88335,130255,12,-682,733
05.10.2024 13:24:46:178,552,2,0,1,121964,88339,130257,10,-681,735
05.10.2024 13:24:46:182,553,2,0,1,121968,88324,130252,11,-683,733
05.10.2024 13:24:46:186,554,2,0,1,121961,88318,130250,11,-687,735
05.10.2024 13:24:46:190,555,2,0,1,121959,88311,130250,6,-684,739
05.10.2024 13:24:46:194,556,2,0,1,121964,88302,130236,9,-684,734
05.10.2024 13:24:46:198,557,2,0,1,121959,88299,130236,9,-681,734
05.10.2024 13:24:46:202,558,2,0,1,121958,88292,130235,8,-683,734
05.10.2024 13:24:46:206,559,2,0,1,121958,88284,130227,6,-685,736
05.10.2024 13:24:46:209,560,2,0,1,121960,88270,130226,4,-686,737
05.10.2024 13:24:46:213,561,2,0,1,121957,88269,130221,10,-689,732
05.10.2024 13:24:46:217,562,2,0,1,121953,88252,130225,9,-689,733
05.10.2024 13:24:46:221,563,2,0,1,121955,88254,130224,8,-689,737
05.10.2024 13:24:46:225,564,2,0,1,121956,88241,130218,9,-682,733
05.10.2024 13:24:46:229,565,2,0,1,121952,88234,130217,5,-684,735
05.10.2024 13:24:46:233,566,2,0,1,121953,88218,130215,8,-677,729
05.10.2024 13:24:46:237,567,2,0,1,121954,88222,130209,7,-680,734
05.10.2024 13:24:46:241,568,2,0,1,121950,88207,130208,13,-677,734
05.10.2024 13:24:46:245,569,2,0,1,121949,88209,130202,6,-678,734
05.10.2024 13:24:46:248,570,2,0,1,121945,88199,130212,11,-684,731
05.10.2024 13:24:46:252,571,2,0,1,121946,88199,130204,9,-684,736
05.10.2024 13:24:46:256,572,2,0,1,121946,88196,130206,9,-679,734
05.10.2024 13:24:46:260,573,2,0,1,121943,88200,130210,9,-680,736
05.10.2024 13:24:46:264,574,2,0,1,121947,88184,130206,9,-680,736
05.10.2024 13:24:46:268,575,2,0,1,121945,88184,130211,14,-678,737
05.10.2024 13:24:46:272,576,2,0,1,121947,88179,130206,13,-678,739
05.10.2024 13:24:46:276,577,2,0,1,121942,88175,130206,12,-684,741
05.10.2024 13:24:46:280,578,2,0,1,121945,88173,130201,11,-683,738
05.10.2024 13:24:46:284,579,2,0,1,121936,88176,130206,11,-682,739
05.10.2024 13:24:46:287,580,2,0,1,121942,88163,130208,11,-683,737
05.10.2024 13:24:46:291,581,2,0,1,121939,88165,130209,9,-681,739
05.10.2024 13:24:46:295,582,2,0,1,121940,88165,130205,9,-682,737
05.10.2024 13:24:46:299,583,2,0,1,121935,88161,130207,15,-677,734
05.10.2024 13:24:46:303,584,2,0,1,121939,88163,130210,8,-678,737
05.10.2024 13:24:46:307,585,2,0,1,121936,88166,130210,9,-677,732
05.10.2024 13:24:46:311,586,2,0,1,121937,88146,130209,10,-679,735
05.10.2024 13:24:46:315,587,2,0,1,121935,88151,130206,10,-680,737
05.10.2024 13:24:46:319,588,2,0,1,121940,88150,130204,8,-683,738
05.10.2024 13:24:46:323,589,2,0,1,121936,88149,130211,6,-685,737
05.10.2024 13:24:46:326,590,2,0,1,121936,88153,130212,13,-683,735
05.10.2024 13:24:46:330,591,2,0,1,121943,88158,130213,11,-682,736
05.10.2024 13:24:46:334,592,2,0,1,121937,88156,130218,9,-681,738
05.10.2024 13:24:46:338,593,2,0,1,121939,88164,130217,5,-678,737
05.10.2024 13:24:46:342,594,2,0,1,121941,88161,130220,7,-681,739
05.10.2024 13:24:46:346,595,2,0,1,121941,88163,130222,8,-680,743
05.10.2024 13:24:46:350,596,2,0,1,121946,88166,130217,6,-685,739
05.10.2024 13:24:46:354,597,2,0,1,121936,88161,130216,8,-683,737
05.10.2024 13:24:46:358,598,2,0,1,121942,88163,130227,9,-679,740
05.10.2024 13:24:46:362,599,2,0,1,121934,88174,130227,9,-679,740
05.10.2024 13:24:46:365,600,2,0,1,121940,88171,130224,10,-677,735
05.10.2024 13:24:46:369,601,2,0,1,121937,88176,130233,12,-676,735
05.10.2024 13:24:46:373,602,2,0,1,121937,88176,130227,9,-677,740
05.10.2024 13:24:46:377,603,2,0,1,121941,88184,130230,7,-681,735
05.10.2024 13:24:46:381,604,2,0,1,121938,88184,130226,10,-684,739
05.10.2024 13:24:46:385,605,2,0,1,121934,88178,130233,2,-685,734
05.10.2024 13:24:46:389,606,2,0,1,121937,88180,130231,10,-679,737
05.10.2024 13:24:46:393,607,2,0,1,121937,88183,130226,8,-680,739
05.10.2024 13:24:46:397,608,2,0,1,121938,88196,130231,11,-681,734
05.10.2024 13:24:46:401,609,2,0,1,121936,88192,130224,9,-679,732
05.10.2024 13:24:46:404,610,2,0,1,121934,88196,130232,9,-677,736
05.10.2024 13:24:46:408,611,2,0,1,121941,88195,130230,6,-682,734
05.10.2024 13:24:46:412,612,2,0,1,121937,88208,130237,10,-683,736
05.10.2024 13:24:46:416,613,2,0,1,121939,88204,130236,8,-682,736
05.10.2024 13:24:46:420,614,2,0,1,121945,88210,130230,11,-685,736
05.10.2024 13:24:46:424,615,2,0,1,121938,88207,130225,10,-682,736
05.10.2024 13:24:46:428,616,2,0,1,121943,88207,130228,13,-686,733
05.10.2024 13:24:46:432,617,2,0,1,121939,88209,130232,9,-680,737
05.10.2024 13:24:46:436,618,2,0,1,121939,88208,130227,9,-686,732
05.10.2024 13:24:46:440,619,2,0,1,121940,88210,130232,10,-683,733
05.10.2024 13:24:46:443,620,2,0,1,121939,88207,130237,9,-684,732
05.10.2024 13:24:46:447,621,2,0,1,121943,88212,130232,8,-689,739
05.10.2024 13:24:46:451,622,2,0,1,121945,88213,130228,9,-686,742
05.10.2024 13:24:46:455,623,2,0,1,121933,88213,130229,9,-683,735
05.10.2024 13:24:46:459,624,2,0,1,121947,88212,130223,9,-683,735
05.10.2024 13:24:46:463,625,2,0,1,121935,88209,130231,9,-684,738
05.10.2024 13:24:46:467,626,2,0,1,121936,88210,130226,9,-682,732
05.10.2024 13:24:46:471,627,2,0,1,121935,88209,130224,9,-678,743
05.10.2024 13:24:46:475,628,2,0,1,121935,88207,130224,9,-678,736
05.10.2024 13:24:46:479,629,2,0,1,121937,88213,130220,11,-683,732
05.10.2024 13:24:46:482,630,2,0,1,121931,88203,130220,11,-681,741
05.10.2024 13:24:46:486,631,2,0,1,121933,88204,130220,9,-680,737
05.10.2024 13:24:46:490,632,2,0,1,121932,88206,130218,13,-678,734
05.10.2024 13:24:46:494,633,2,0,1,121928,88204,130219,10,-678,732
05.10.2024 13:24:46:498,634,2,0,1,121932,88200,130213,10,-680,739
05.10.2024 13:24:46:502,635,2,0,1,121931,88205,130213,14,-674,737
05.10.2024 13:24:46:506,636,2,0,1,121931,88199,130214,8,-678,735
05.10.2024 13:24:46:510,637,2,0,1,121928,88193,130214,9,-676,734
05.10.2024 13:24:46:514,638,2,0,1,121924,88214,130217,7,-676,734
05.10.2024 13:24:46:518,639,2,0,1,121928,88203,130216,10,-683,739
05.10.2024 13:24:46:521,640,2,0,1,121927,88198,130221,7,-684,736
05.10.2024 13:24:46:525,641,2,0,1,121931,88202,130219,12,-683,738
05.10.2024 13:24:46:529,642,2,0,1,121930,88204,130217,16,-682,738
05.10.2024 13:24:46:533,643,2,0,1,121930,88203,130219,11,-680,732
05.10.2024 13:24:46:537,644,2,0,1,121929,88201,130221,11,-680,732
05.10.2024 13:24:46:541,645,2,0,1,121928,88200,130221,12,-681,737
05.10.2024 13:24:46:545,646,2,0,1,121928,88198,130217,10,-679,737
05.10.2024 13:24:46:549,647,2,0,1,121928,88197,130222,11,-681,737
05.10.2024 13:24:46:553,648,2,0,1,121925,88209,130217,9,-688,737
05.10.2024 13:24:46:557,649,2,0,1,121930,88207,130222,9,-688,737
05.10.2024 13:24:46:560,650,2,0,1,121929,88205,130214,10,-680,737
05.10.2024 13:24:46:564,651,2,0,1,121926,88203,130212,15,-683,738
05.10.2024 13:24:46:568,652,2,0,1,121926,88215,130221,8,-685,739
05.10.2024 13:24:46:572,653,2,0,1,121927,88208,130216,10,-679,739
05.10.2024 13:24:46:576,654,2,0,1,121922,88218,130221,13,-682,739
05.10.2024 13:24:46:580,655,2,0,1,121923,88216,130221,13,-680,738
05.10.2024 13:24:46:584,656,2,0,1,121926,88205,130222,6,-681,737
05.10.2024 13:24:46:588,657,2,0,1,121929,88213,130221,11,-684,739
05.10.2024 13:24:46:592,658,2,0,1,121931,88226,130229,10,-682,738
05.10.2024 13:24:46:596,659,2,0,1,121924,88208,130221,13,-684,738
05.10.2024 13:24:46:599,660,2,0,1,121924,88225,130231,11,-682,736
05.10.2024 13:24:46:603,661,2,0,1,121928,88210,130227,12,-676,734
05.10.2024 13:24:46:607,662,2,0,1,121926,88220,130229,8,-677,737
05.10.2024 13:24:46:611,663,2,0,1,121923,88218,130228,13,-679,737
05.10.2024 13:24:46:615,664,2,0,1,121924,88226,130223,9,-679,735
05.10.2024 13:24:46:619,665,2,0,1,121927,88231,130227,11,-680,739
05.10.2024 13:24:46:623,666,2,0,1,121922,88235,130229,10,-684,741
05.10.2024 13:24:46:627,667,2,0,1,121922,88230,130227,14,-685,733
05.10.2024 13:24:46:631,668,2,0,1,121920,88233,130226,11,-684,737
05.10.2024 13:24:46:635,669,2,0,1,121921,88238,130228,12,-679,736
05.10.2024 13:24:46:638,670,2,0,1,121917,88238,130227,15,-679,732
05.10.2024 13:24:46:642,671,2,0,1,121919,88245,130228,8,-679,740
05.10.2024 13:24:46:646,672,2,0,1,121919,88245,130227,10,-683,740
05.10.2024 13:24:46:650,673,2,0,1,121923,88247,130230,7,-685,738
05.10.2024 13:24:46:654,674,2,0,1,121924,88258,130232,7,-685,738
05.10.2024 13:24:46:658,675,2,0,1,121920,88252,130238,9,-684,735
05.10.2024 13:24:46:662,676,2,0,1,121923,88252,130233,13,-684,734
05.10.2024 13:24:46:666,677,2,0,1,121924,88262,130236,10,-681,735
05.10.2024 13:24:46:670,678,2,0,1,121922,88260,130230,11,-679,738
05.10.2024 13:24:46:674,679,2,0,1,121919,88258,130230,12,-681,741
05.10.2024 13:24:46:677,680,2,0,1,121917,88273,130233,7,-681,739
05.10.2024 13:24:46:681,681,2,0,1,121921,88268,130240,9,-682,737
05.10.2024 13:24:46:685,682,2,0,1,121918,88278,130238,8,-683,739
05.10.2024 13:24:46:689,683,2,0,1,121922,88269,130239,7,-687,732
05.10.2024 13:24:46:693,684,2,0,1,121918,88283,130243,9,-684,736
05.10.2024 13:24:46:697,685,2,0,1,121921,88283,130239,3,-684,735
05.10.2024 13:24:46:701,686,2,0,1,121921,88286,130239,15,-682,735
05.10.2024 13:24:46:705,687,2,0,1,121918,88290,130242,10,-678,733
05.10.2024 13:24:46:709,688,2,0,1,121918,88288,130240,7,-680,740
05.10.2024 13:24:46:713,689,2,0,1,121921,88297,130243,10,-679,738
05.10.2024 13:24:46:716,690,2,0,1,121915,88296,130245,8,-679,737
05.10.2024 13:24:46:720,691,2,0,1,121920,88296,130242,10,-684,738
05.10.2024 13:24:46:724,692,2,0,1,121918,88304,130246,14,-682,737
05.10.2024 13:24:46:728,693,2,0,1,121917,88294,130237,17,-675,732
05.10.2024 13:24:46:732,694,2,0,1,121918,88314,130239,10,-681,733
05.10.2024 13:24:46:736,695,2,0,1,121915,88308,130244,12,-678,735
05.10.2024 13:24:46:740,696,2,0,1,121914,88310,130243,11,-676,735
05.10.2024 13:24:46:744,697,2,0,1,121911,88315,130241,9,-681,737
05.10.2024 13:24:46:748,698,2,0,1,121918,88323,130238,11,-682,735
05.10.2024 13:24:46:752,699,2,0,1,121916,88317,130245,11,-682,735
05.10.2024 13:24:46:755,700,2,0,1,121915,88317,130238,12,-678,736
05.10.2024 13:24:46:759,701,2,0,1,121913,88323,130241,14,-682,740
05.10.2024 13:24:46:763,702,2,0,1,121910,88319,130242,9,-682,735
05.10.2024 13:24:46:767,703,2,0,1,121914,88329,130240,11,-681,734
05.10.2024 13:24:46:771,704,2,0,1,121915,88333,130240,9,-675,737
05.10.2024 13:24:46:775,705,2,0,1,121919,88333,130244,8,-674,737
05.10.2024 13:24:46:779,706,2,0,1,121914,88332,130248,6,-679,736
05.10.2024 13:24:46:783,707,2,0,1,121920,88342,130248,8,-683,734
05.10.2024 13:24:46:787,708,2,0,1,121917,88344,130251,7,-683,733
05.10.2024 13:24:46:791,709,2,0,1,121918,88354,130251,8,-686,737
05.10.2024 13:24:46:794,710,2,0,1,121920,88346,130253,8,-684,738
05.10.2024 13:24:46:798,711,2,0,1,121917,88363,130250,12,-686,737
05.10.2024 13:24:46:802,712,2,0,1,121916,88352,130252,14,-679,738
05.10.2024 13:24:46:806,713,2,0,1,121919,88348,130251,8,-682,734
05.10.2024 13:24:46:810,714,2,0,1,121918,88349,130249,14,-680,736
05.10.2024 13:24:46:814,715,2,0,1,121915,88355,130247,9,-682,742
05.10.2024 13:24:46:818,716,2,0,1,121912,88373,130253,7,-685,734
05.10.2024 13:24:46:822,717,2,0,1,121921,88362,130258,10,-686,740
05.10.2024 13:24:46:826,718,2,0,1,121916,88377,130255,8,-683,732
05.10.2024 13:24:46:830,719,2,0,1,121918,88366,130257,9,-680,735
05.10.2024 13:24:46:833,720,2,0,1,121913,88373,130260,7,-681,740
05.10.2024 13:24:46:837,721,2,0,1,121918,88374,130260,9,-677,738
05.10.2024 13:24:46:841,722,2,0,1,121915,88382,130255,6,-677,738
05.10.2024 13:24:46:845,723,2,0,1,121921,88380,130255,7,-675,736
05.10.2024 13:24:46:849,724,2,0,1,121915,88385,130265,7,-675,736
05.10.2024 13:24:46:853,725,2,0,1,121916,88394,130264,10,-682,735
05.10.2024 13:24:46:857,726,2,0,1,121923,88398,130264,8,-680,738
05.10.2024 13:24:46:861,727,2,0,1,121916,88412,130257,14,-682,732
05.10.2024 13:24:46:865,728,2,0,1,121914,88392,130259,11,-680,734
05.10.2024 13:24:46:869,729,2,0,1,121916,88404,130260,5,-680,735
05.10.2024 13:24:46:872,730,2,0,1,121918,88400,130260,10,-678,736
05.10.2024 13:24:46:876,731,2,0,1,121914,88415,130257,9,-679,735
05.10.2024 13:24:46:880,732,2,0,1,121913,88419,130262,7,-680,738
05.10.2024 13:24:46:884,733,2,0,1,121918,88412,130263,5,-681,735
05.10.2024 13:24:46:888,734,2,0,1,121915,88424,130263,7,-683,741
05.10.2024 13:24:46:892,735,2,0,1,121914,88428,130264,8,-685,739
05.10.2024 13:24:46:896,736,2,0,1,121914,88421,130264,10,-682,737
05.10.2024 13:24:46:900,737,2,0,1,121916,88428,130266,9,-684,741
05.10.2024 13:24:46:904,738,2,0,1,121914,88427,130267,9,-679,737
05.10.2024 13:24:46:908,739,2,0,1,121917,88432,130266,8,-679,736
05.10.2024 13:24:46:911,740,2,0,1,121914,88437,130267,7,-680,735
05.10.2024 13:24:46:915,741,2,0,1,121915,88434,130269,10,-685,744
05.10.2024 13:24:46:919,742,2,0,1,121913,88446,130264,9,-681,746
05.10.2024 13:24:46:923,743,2,0,1,121914,88450,130273,10,-682,740
05.10.2024 13:24:46:927,744,2,0,1,121915,88445,130270,9,-678,739
05.10.2024 13:24:46:931,745,2,0,1,121912,88452,130271,9,-676,742
05.10.2024 13:24:46:935,746,2,0,1,121921,88450,130270,14,-678,742
05.10.2024 13:24:46:939,747,2,0,1,121916,88458,130271,14,-677,738
05.10.2024 13:24:46:943,748,2,0,1,121914,88452,130273,13,-674,738
05.10.2024 13:24:46:947,749,2,0,1,121913,88458,130269,13,-674,738
05.10.2024 13:24:46:950,750,2,0,1,121914,88469,130272,14,-681,743
05.10.2024 13:24:46:954,751,2,0,1,121917,88459,130269,15,-680,741
05.10.2024 13:24:46:958,752,2,0,1,121912,88468,130268,10,-683,738
05.10.2024 13:24:46:962,753,2,0,1,121912,88467,130257,14,-682,738
05.10.2024 13:24:46:966,754,2,0,1,121914,88451,130253,16,-678,732
05.10.2024 13:24:46:970,755,2,0,1,121907,88469,130253,16,-675,731
05.10.2024 13:24:46:974,756,2,0,1,121910,88461,130240,13,-682,732
05.10.2024 13:24:46:978,757,2,0,1,121903,88454,130228,9,-682,738
05.10.2024 13:24:46:982,758,2,0,1,121904,88445,130230,8,-680,737
05.10.2024 13:24:46:986,759,2,0,1,121901,88445,130222,12,-684,735
05.10.2024 13:24:46:989,760,2,0,1,121901,88436,130225,6,-693,733
05.10.2024 13:24:46:993,761,2,0,1,121904,88430,130216,8,-691,737
05.10.2024 13:24:46:997,762,2,0,1,121895,88413,130205,13,-684,739
05.10.2024 13:24:47:1,763,2,0,1,121900,88403,130202,8,-686,732
05.10.2024 13:24:47:5,764,2,0,1,121896,88397,130202,8,-682,734
05.10.2024 13:24:47:9,765,2,0,1,121892,88380,130192,8,-683,735
05.10.2024 13:24:47:13,766,2,0,1,121896,88373,130192,8,-688,740
05.10.2024 13:24:47:17,767,2,0,1,121888,88358,130186,6,-687,736
05.10.2024 13:24:47:21,768,2,0,1,121891,88341,130179,8,-686,736
05.10.2024 13:24:47:25,769,2,0,1,121887,88329,130175,5,-680,735
05.10.2024 13:24:47:28,770,2,0,1,121892,88321,130181,9,-684,740
05.10.2024 13:24:47:32,771,2,0,1,121885,88309,130174,5,-678,734
05.10.2024 13:24:47:36,772,2,0,1,121879,88297,130174,4,-679,735
05.10.2024 13:24:47:40,773,2,0,1,121883,88291,130167,9,-681,736
05.10.2024 13:24:47:44,774,2,0,1,121880,88273,130165,9,-681,736
05.10.2024 13:24:47:48,775,2,0,1,121882,88261,130160,6,-682,743
05.10.2024 13:24:47:52,776,2,0,1,121873,88248,130156,7,-685,736
05.10.2024 13:24:47:56,777,2,0,1,121872,88243,130156,8,-685,745
05.10.2024 13:24:47:60,778,2,0,1,121878,88236,130155,12,-686,736
05.10.2024 13:24:47:64,779,2,0,1,121876,88232,130149,8,-684,734
05.10.2024 13:24:47:67,780,2,0,1,121870,88227,130151,14,-681,738
05.10.2024 13:24:47:71,781,2,0,1,121866,88221,130147,13,-675,733
05.10.2024 13:24:47:75,782,2,0,1,121869,88212,130146,11,-676,733
05.10.2024 13:24:47:79,783,2,0,1,121867,88207,130146,10,-680,734
05.10.2024 13:24:47:83,784,2,0,1,121869,88198,130146,9,-682,733
05.10.2024 13:24:47:87,785,2,0,1,121864,88186,130152,13,-681,737
05.10.2024 13:24:47:91,786,2,0,1,121864,88182,130148,14,-680,734
05.10.2024 13:24:47:95,787,2,0,1,121867,88176,130144,7,-683,734
05.10.2024 13:24:47:99,788,2,0,1,121863,88175,130139,12,-681,731
05.10.2024 13:24:47:103,789,2,0,1,121862,88161,130142,10,-680,743
05.10.2024 13:24:47:106,790,2,0,1,121861,88167,130146,16,-679,739
05.10.2024 13:24:47:110,791,2,0,1,121860,88165,130145,11,-675,734
05.10.2024 13:24:47:114,792,2,0,1,121858,88148,130139,10,-682,741
05.10.2024 13:24:47:118,793,2,0,1,121854,88156,130141,11,-681,735
05.10.2024 13:24:47:122,794,2,0,1,121863,88144,130141,11,-680,741
05.10.2024 13:24:47:126,795,2,0,1,121858,88149,130140,12,-682,739
05.10.2024 13:24:47:130,796,2,0,1,121854,88148,130147,8,-681,735
05.10.2024 13:24:47:134,797,2,0,1,121862,88137,130143,11,-680,733
05.10.2024 13:24:47:138,798,2,0,1,121857,88134,130139,12,-676,733
05.10.2024 13:24:47:142,799,2,0,1,121863,88130,130145,12,-676,733
05.10.2024 13:24:47:145,800,2,0,1,121857,88135,130142,14,-679,738
05.10.2024 13:24:47:149,801,2,0,1,121857,88125,130146,8,-679,737
05.10.2024 13:24:47:153,802,2,0,1,121860,88127,130140,7,-680,739
05.10.2024 13:24:47:157,803,2,0,1,121855,88134,130147,7,-683,737
05.10.2024 13:24:47:161,804,2,0,1,121851,88126,130139,5,-687,734
05.10.2024 13:24:47:165,805,2,0,1,121852,88131,130144,11,-686,737
05.10.2024 13:24:47:169,806,2,0,1,121854,88113,130147,5,-683,738
05.10.2024 13:24:47:173,807,2,0,1,121852,88126,130147,13,-677,734
05.10.2024 13:24:47:177,808,2,0,1,121857,88116,130145,11,-681,734
05.10.2024 13:24:47:181,809,2,0,1,121850,88119,130151,7,-683,738
05.10.2024 13:24:47:184,810,2,0,1,121851,88119,130150,11,-685,740
05.10.2024 13:24:47:188,811,2,0,1,121849,88110,130144,7,-679,739
05.10.2024 13:24:47:192,812,2,0,1,121848,88124,130148,6,-687,740
05.10.2024 13:24:47:196,813,2,0,1,121853,88115,130142,7,-680,742
05.10.2024 13:24:47:200,814,2,0,1,121852,88115,130152,11,-678,741
05.10.2024 13:24:47:204,815,2,0,1,121850,88109,130146,12,-676,735
05.10.2024 13:24:47:208,816,2,0,1,121844,88113,130142,10,-677,736
05.10.2024 13:24:47:212,817,2,0,1,121848,88119,130150,12,-673,736
05.10.2024 13:24:47:216,818,2,0,1,121847,88114,130144,6,-678,740
05.10.2024 13:24:47:220,819,2,0,1,121847,88113,130146,6,-674,738
05.10.2024 13:24:47:223,820,2,0,1,121851,88107,130148,11,-679,739
05.10.2024 13:24:47:227,821,2,0,1,121844,88107,130148,14,-680,736
05.10.2024 13:24:47:231,822,2,0,1,121846,88110,130150,10,-676,736
05.10.2024 13:24:47:235,823,2,0,1,121844,88115,130153,10,-683,731
05.10.2024 13:24:47:239,824,2,0,1,121848,88106,130148,10,-683,731
05.10.2024 13:24:47:243,825,2,0,1,121847,88105,130145,14,-680,737
05.10.2024 13:24:47:247,826,2,0,1,121849,88102,130144,12,-678,733
05.10.2024 13:24:47:251,827,2,0,1,121846,88117,130153,9,-683,734
05.10.2024 13:24:47:255,828,2,0,1,121847,88110,130146,7,-688,738
05.10.2024 13:24:47:259,829,2,0,1,121846,88093,130144,12,-690,734
05.10.2024 13:24:47:262,830,2,0,1,121848,88104,130144,9,-685,735
05.10.2024 13:24:47:266,831,2,0,1,121849,88101,130142,9,-685,731
05.10.2024 13:24:47:270,832,2,0,1,121846,88096,130141,12,-682,733
05.10.2024 13:24:47:274,833,2,0,1,121844,88093,130142,6,-684,735
05.10.2024 13:24:47:278,834,2,0,1,121844,88096,130135,11,-685,738
05.10.2024 13:24:47:282,835,2,0,1,121839,88106,130136,8,-691,735
05.10.2024 13:24:47:286,836,2,0,1,121844,88100,130137,9,-686,738
05.10.2024 13:24:47:290,837,2,0,1,121845,88095,130135,9,-685,735
05.10.2024 13:24:47:294,838,2,0,1,121843,88092,130135,9,-681,735
05.10.2024 13:24:47:298,839,2,0,1,121844,88090,130131,11,-687,736
05.10.2024 13:24:47:301,840,2,0,1,121844,88084,130133,12,-682,736
05.10.2024 13:24:47:305,841,2,0,1,121834,88076,130129,10,-679,733
05.10.2024 13:24:47:309,842,2,0,1,121836,88078,130124,11,-674,738
05.10.2024 13:24:47:313,843,2,0,1,121835,88075,130128,6,-677,738
05.10.2024 13:24:47:317,844,2,0,1,121836,88071,130124,10,-679,741
05.10.2024 13:24:47:321,845,2,0,1,121827,88074,130125,7,-681,740
05.10.2024 13:24:47:325,846,2,0,1,121834,88063,130125,12,-682,734
05.10.2024 13:24:47:329,847,2,0,1,121831,88057,130127,8,-676,734
05.10.2024 13:24:47:333,848,2,0,1,121829,88067,130122,13,-676,735
05.10.2024 13:24:47:337,849,2,0,1,121822,88063,130116,13,-676,735
05.10.2024 13:24:47:340,850,2,0,1,121825,88058,130122,7,-672,735
05.10.2024 13:24:47:344,851,2,0,1,121825,88052,130120,9,-672,740
05.10.2024 13:24:47:348,852,2,0,1,121825,88063,130121,5,-681,740
05.10.2024 13:24:47:352,853,2,0,1,121826,88060,130121,11,-682,737
05.10.2024 13:24:47:356,854,2,0,1,121825,88056,130119,9,-688,740
05.10.2024 13:24:47:360,855,2,0,1,121829,88051,130120,6,-678,740
05.10.2024 13:24:47:364,856,2,0,1,121827,88035,130115,14,-680,738
05.10.2024 13:24:47:368,857,2,0,1,121824,88049,130116,12,-681,742
05.10.2024 13:24:47:372,858,2,0,1,121827,88050,130119,12,-685,738
05.10.2024 13:24:47:376,859,2,0,1,121821,88052,130118,9,-687,736
05.10.2024 13:24:47:379,860,2,0,1,121829,88048,130123,12,-684,739
05.10.2024 13:24:47:383,861,2,0,1,121826,88045,130119,11,-684,737
05.10.2024 13:24:47:387,862,2,0,1,121824,88041,130120,6,-684,738
05.10.2024 13:24:47:391,863,2,0,1,121823,88047,130122,12,-686,736
05.10.2024 13:24:47:395,864,2,0,1,121830,88042,130121,10,-683,737
05.10.2024 13:24:47:399,865,2,0,1,121824,88051,130120,6,-683,735
05.10.2024 13:24:47:403,866,2,0,1,121827,88050,130131,8,-681,733
05.10.2024 13:24:47:407,867,2,0,1,121823,88047,130125,8,-678,735
05.10.2024 13:24:47:411,868,2,0,1,121822,88042,130128,5,-681,736
05.10.2024 13:24:47:414,869,2,0,1,121823,88044,130128,8,-686,735
05.10.2024 13:24:47:418,870,2,0,1,121825,88050,130126,9,-683,737
05.10.2024 13:24:47:422,871,2,0,1,121823,88041,130129,10,-686,737
05.10.2024 13:24:47:426,872,2,0,1,121822,88058,130137,4,-685,735
05.10.2024 13:24:47:430,873,2,0,1,121823,88045,130123,11,-683,735
05.10.2024 13:24:47:434,874,2,0,1,121819,88051,130127,11,-683,735
05.10.2024 13:24:47:438,875,2,0,1,121819,88053,130128,12,-673,735
05.10.2024 13:24:47:442,876,2,0,1,121821,88050,130121,12,-674,732
05.10.2024 13:24:47:446,877,2,0,1,121816,88046,130133,7,-677,735
05.10.2024 13:24:47:450,878,2,0,1,121818,88054,130130,9,-679,742
05.10.2024 13:24:47:453,879,2,0,1,121817,88058,130130,7,-681,742
05.10.2024 13:24:47:457,880,2,0,1,121819,88061,130123,6,-682,734
05.10.2024 13:24:47:461,881,2,0,1,121813,88058,130129,8,-685,733
05.10.2024 13:24:47:465,882,2,0,1,121814,88059,130126,7,-677,741
05.10.2024 13:24:47:469,883,2,0,1,121814,88074,130127,12,-677,732
05.10.2024 13:24:47:473,884,2,0,1,121813,88060,130126,8,-675,733
05.10.2024 13:24:47:477,885,2,0,1,121812,88058,130128,9,-681,736
05.10.2024 13:24:47:481,886,2,0,1,121817,88060,130132,10,-680,735
05.10.2024 13:24:47:485,887,2,0,1,121814,88072,130129,9,-686,735
05.10.2024 13:24:47:489,888,2,0,1,121814,88077,130129,6,-685,733
05.10.2024 13:24:47:492,889,2,0,1,121811,88074,130128,10,-682,737
05.10.2024 13:24:47:496,890,2,0,1,121814,88073,130129,7,-683,738
05.10.2024 13:24:47:500,891,2,0,1,121812,88073,130130,10,-685,733
05.10.2024 13:24:47:504,892,2,0,1,121807,88086,130131,10,-677,737
05.10.2024 13:24:47:508,893,2,0,1,121806,88082,130129,11,-678,731
05.10.2024 13:24:47:512,894,2,0,1,121804,88080,130131,10,-679,738
05.10.2024 13:24:47:516,895,2,0,1,121811,88075,130133,13,-682,735
05.10.2024 13:24:47:520,896,2,0,1,121812,88085,130132,6,-685,737
05.10.2024 13:24:47:524,897,2,0,1,121815,88090,130130,11,-685,734
05.10.2024 13:24:47:528,898,2,0,1,121811,88094,130126,12,-680,740
05.10.2024 13:24:47:531,899,2,0,1,121809,88085,130127,12,-680,740
05.10.2024 13:24:47:535,900,2,0,1,121807,88094,130135,8,-680,737
05.10.2024 13:24:47:539,901,2,0,1,121810,88095,130136,10,-676,735
05.10.2024 13:24:47:543,902,2,0,1,121807,88098,130135,10,-680,736
05.10.2024 13:24:47:547,903,2,0,1,121803,88090,130129,9,-682,737
05.10.2024 13:24:47:551,904,2,0,1,121807,88104,130129,7,-679,735
05.10.2024 13:24:47:555,905,2,0,1,121808,88093,130131,9,-683,735
05.10.2024 13:24:47:559,906,2,0,1,121802,88100,130134,10,-685,741
05.10.2024 13:24:47:563,907,2,0,1,121803,88107,130124,9,-685,736
05.10.2024 13:24:47:567,908,2,0,1,121804,88104,130129,11,-679,738
05.10.2024 13:24:47:570,909,2,0,1,121802,88113,130136,11,-678,741
05.10.2024 13:24:47:574,910,2,0,1,121799,88102,130133,9,-678,737
05.10.2024 13:24:47:578,911,2,0,1,121802,88110,130123,6,-679,737
05.10.2024 13:24:47:582,912,2,0,1,121796,88117,130137,10,-683,737
05.10.2024 13:24:47:586,913,2,0,1,121798,88108,130128,14,-680,737
05.10.2024 13:24:47:590,914,2,0,1,121797,88118,130130,6,-682,740
05.10.2024 13:24:47:594,915,2,0,1,121800,88119,130135,12,-684,739
05.10.2024 13:24:47:598,916,2,0,1,121795,88123,130135,11,-679,735
05.10.2024 13:24:47:602,917,2,0,1,121800,88125,130134,12,-681,736
05.10.2024 13:24:47:606,918,2,0,1,121798,88125,130127,12,-679,736
05.10.2024 13:24:47:609,919,2,0,1,121795,88128,130131,12,-677,734
05.10.2024 13:24:47:613,920,2,0,1,121798,88128,130131,11,-682,736
05.10.2024 13:24:47:617,921,2,0,1,121794,88138,130129,13,-678,738
05.10.2024 13:24:47:621,922,2,0,1,121797,88140,130133,11,-681,738
05.10.2024 13:24:47:625,923,2,0,1,121795,88135,130134,9,-686,737
05.10.2024 13:24:47:629,924,2,0,1,121797,88140,130133,9,-686,737
05.10.2024 13:24:47:633,925,2,0,1,121796,88132,130137,10,-683,738
05.10.2024 13:24:47:637,926,2,0,1,121795,88149,130134,8,-683,734
05.10.2024 13:24:47:641,927,2,0,1,121796,88141,130130,13,-679,739
05.10.2024 13:24:47:645,928,2,0,1,121795,88148,130135,10,-682,738
05.10.2024 13:24:47:648,929,2,0,1,121797,88147,130138,9,-682,738
05.10.2024 13:24:47:652,930,2,0,1,121795,88148,130132,7,-677,740
05.10.2024 13:24:47:656,931,2,0,1,121793,88150,130131,12,-679,741
05.10.2024 13:24:47:660,932,2,0,1,121789,88162,130139,7,-685,739
05.10.2024 13:24:47:664,933,2,0,1,121795,88159,130131,12,-682,740
05.10.2024 13:24:47:668,934,2,0,1,121787,88158,130138,13,-675,737
05.10.2024 13:24:47:672,935,2,0,1,121792,88166,130136,8,-679,738
05.10.2024 13:24:47:676,936,2,0,1,121791,88163,130134,12,-681,736
05.10.2024 13:24:47:680,937,2,0,1,121784,88165,130143,10,-679,730
05.10.2024 13:24:47:684,938,2,0,1,121789,88158,130136,6,-683,734
05.10.2024 13:24:47:687,939,2,0,1,121790,88162,130140,10,-681,736
05.10.2024 13:24:47:691,940,2,0,1,121784,88177,130142,10,-679,735
05.10.2024 13:24:47:695,941,2,0,1,121791,88174,130135,10,-682,731
05.10.2024 13:24:47:699,942,2,0,1,121787,88175,130140,7,-679,734
05.10.2024 13:24:47:703,943,2,0,1,121788,88175,130141,10,-679,738
05.10.2024 13:24:47:707,944,2,0,1,121788,88181,130143,8,-681,739
05.10.2024 13:24:47:711,945,2,0,1,121788,88187,130144,9,-676,734
05.10.2024 13:24:47:715,946,2,0,1,121788,88193,130145,6,-685,734
05.10.2024 13:24:47:719,947,2,0,1,121789,88193,130140,7,-680,733
05.10.2024 13:24:47:723,948,2,0,1,121784,88201,130143,6,-684,739
05.10.2024 13:24:47:726,949,2,0,1,121790,88199,130143,6,-684,739
05.10.2024 13:24:47:730,950,2,0,1,121790,88200,130146,6,-684,735
05.10.2024 13:24:47:734,951,2,0,1,121784,88204,130142,7,-681,735
05.10.2024 13:24:47:738,952,2,0,1,121781,88209,130149,8,-679,739
05.10.2024 13:24:47:742,953,2,0,1,121781,88197,130147,9,-680,733
05.10.2024 13:24:47:746,954,2,0,1,121780,88216,130145,11,-681,736
05.10.2024 13:24:47:750,955,2,0,1,121783,88211,130144,4,-679,743
05.10.2024 13:24:47:754,956,2,0,1,121778,88210,130142,10,-684,739
05.10.2024 13:24:47:758,957,2,0,1,121782,88214,130147,12,-682,746
05.10.2024 13:24:47:762,958,2,0,1,121782,88217,130147,9,-683,738
05.10.2024 13:24:47:765,959,2,0,1,121779,88224,130148,7,-681,739
05.10.2024 13:24:47:769,960,2,0,1,121781,88225,130142,12,-677,741
05.10.2024 13:24:47:773,961,2,0,1,121776,88228,130140,11,-681,743
05.10.2024 13:24:47:777,962,2,0,1,121782,88226,130144,13,-674,740
05.10.2024 13:24:47:781,963,2,0,1,121777,88227,130142,9,-678,744
05.10.2024 13:24:47:785,964,2,0,1,121776,88228,130145,10,-676,736
05.10.2024 13:24:47:789,965,2,0,1,121778,88227,130141,12,-679,742
05.10.2024 13:24:47:793,966,2,0,1,121778,88233,130143,15,-677,741
05.10.2024 13:24:47:797,967,2,0,1,121779,88235,130142,17,-680,738
05.10.2024 13:24:47:801,968,2,0,1,121775,88230,130138,10,-677,739
05.10.2024 13:24:47:804,969,2,0,1,121780,88238,130139,11,-673,734
05.10.2024 13:24:47:808,970,2,0,1,121775,88230,130126,12,-678,732
05.10.2024 13:24:47:812,971,2,0,1,121773,88225,130123,11,-674,736
05.10.2024 13:24:47:816,972,2,0,1,121764,88226,130115,11,-680,733
05.10.2024 13:24:47:820,973,2,0,1,121764,88219,130114,13,-683,733
05.10.2024 13:24:47:824,974,2,0,1,121768,88218,130108,13,-683,733
05.10.2024 13:24:47:828,975,2,0,1,121762,88213,130102,9,-683,742
05.10.2024 13:24:47:832,976,2,0,1,121760,88193,130095,8,-684,731
05.10.2024 13:24:47:836,977,2,0,1,121761,88181,130089,11,-687,732
05.10.2024 13:24:47:840,978,2,0,1,121754,88176,130087,9,-687,732
05.10.2024 13:24:47:843,979,2,0,1,121753,88166,130076,10,-683,732
05.10.2024 13:24:47:847,980,2,0,1,121755,88157,130074,9,-684,735
05.10.2024 13:24:47:851,981,2,0,1,121750,88138,130069,8,-687,735
05.10.2024 13:24:47:855,982,2,0,1,121742,88132,130067,6,-689,739
05.10.2024 13:24:47:859,983,2,0,1,121746,88108,130061,6,-687,736
05.10.2024 13:24:47:863,984,2,0,1,121741,88106,130058,2,-688,738
05.10.2024 13:24:47:867,985,2,0,1,121741,88081,130045,10,-687,734
05.10.2024 13:24:47:871,986,2,0,1,121736,88075,130044,6,-683,736
05.10.2024 13:24:47:875,987,2,0,1,121741,88059,130037,5,-683,734
05.10.2024 13:24:47:879,988,2,0,1,121732,88045,130043,8,-682,732
05.10.2024 13:24:47:882,989,2,0,1,121728,88027,130036,5,-681,735
05.10.2024 13:24:47:886,990,2,0,1,121725,88024,130037,3,-688,735
05.10.2024 13:24:47:890,991,2,0,1,121729,87997,130025,4,-685,733
05.10.2024 13:24:47:894,992,2,0,1,121725,87988,130027,7,-685,738
05.10.2024 13:24:47:898,993,2,0,1,121722,87975,130024,8,-688,735
05.10.2024 13:24:47:902,994,2,0,1,121722,87963,130017,9,-681,738
05.10.2024 13:24:47:906,995,2,0,1,121724,87946,130013,8,-681,736
05.10.2024 13:24:47:910,996,2,0,1,121718,87934,130017,7,-678,735
05.10.2024 13:24:47:914,997,2,0,1,121713,87930,130014,8,-679,736
05.10.2024 13:24:47:918,998,2,0,1,121712,87917,130008,9,-678,736
05.10.2024 13:24:47:921,999,2,0,1,121710,87901,130007,11,-681,738
05.10.2024 13:24:47:925,1000,2,0,1,121711,87900,130008,9,-678,736
05.10.2024 13:24:47:929,1001,2,0,1,121709,87889,130008,14,-685,741
05.10.2024 13:24:47:933,1002,2,0,1,121703,87880,130003,10,-676,736
05.10.2024 13:24:47:937,1003,2,0,1,121705,87867,130005,10,-680,741
05.10.2024 13:24:47:941,1004,2,0,1,121696,87843,130003,13,-674,732
05.10.2024 13:24:47:945,1005,2,0,1,121700,87845,130008,16,-678,737
05.10.2024 13:24:47:949,1006,2,0,1,121696,87829,129992,12,-667,734
05.10.2024 13:24:47:953,1007,2,0,1,121698,87836,130003,14,-678,739
05.10.2024 13:24:47:957,1008,2,0,1,121696,87824,129999,11,-681,742
05.10.2024 13:24:47:960,1009,2,0,1,121697,87820,129998,11,-679,736
05.10.2024 13:24:47:964,1010,2,0,1,121694,87800,129992,11,-680,739
05.10.2024 13:24:47:968,1011,2,0,1,121692,87812,129992,12,-680,739
05.10.2024 13:24:47:972,1012,2,0,1,121695,87796,129992,12,-674,738
05.10.2024 13:24:47:976,1013,2,0,1,121688,87797,129994,10,-680,735
05.10.2024 13:24:47:980,1014,2,0,1,121689,87788,129991,12,-672,733
05.10.2024 13:24:47:984,1015,2,0,1,121693,87783,129990,12,-676,735
05.10.2024 13:24:47:988,1016,2,0,1,121687,87779,129994,8,-679,737
05.10.2024 13:24:47:992,1017,2,0,1,121690,87762,129991,9,-684,737
05.10.2024 13:24:47:996,1018,2,0,1,121687,87765,129986,12,-682,737
05.10.2024 13:24:47:999,1019,2,0,1,121685,87765,129994,6,-686,732
05.10.2024 13:24:48:3,1020,2,0,1,121685,87757,129989,11,-681,735
05.10.2024 13:24:48:7,1021,2,0,1,121679,87762,129990,14,-681,737
05.10.2024 13:24:48:11,1022,2,0,1,121687,87756,129992,8,-681,729
05.10.2024 13:24:48:15,1023,2,0,1,121679,87755,129988,7,-681,735
05.10.2024 13:24:48:19,1024,2,0,1,121680,87746,129989,7,-681,735
05.10.2024 13:24:48:23,1025,2,0,1,121678,87743,129985,7,-684,741
05.10.2024 13:24:48:27,1026,2,0,1,121676,87751,129990,11,-685,737
05.10.2024 13:24:48:31,1027,2,0,1,121686,87736,129993,9,-686,740
05.10.2024 13:24:48:35,1028,2,0,1,121683,87737,129992,9,-682,738
05.10.2024 13:24:48:38,1029,2,0,1,121677,87738,129990,7,-680,737
05.10.2024 13:24:48:42,1030,2,0,1,121678,87735,129991,8,-675,736
05.10.2024 13:24:48:46,1031,2,0,1,121680,87738,129990,11,-674,738
05.10.2024 13:24:48:50,1032,2,0,1,121677,87732,129987,12,-681,738
05.10.2024 13:24:48:54,1033,2,0,1,121673,87725,129989,6,-678,734
05.10.2024 13:24:48:58,1034,2,0,1,121679,87729,129995,12,-684,737
05.10.2024 13:24:48:62,1035,2,0,1,121678,87729,129986,5,-683,734
05.10.2024 13:24:48:66,1036,2,0,1,121678,87730,129988,5,-682,739
05.10.2024 13:24:48:70,1037,2,0,1,121679,87725,129990,10,-684,734
05.10.2024 13:24:48:74,1038,2,0,1,121679,87729,129988,14,-678,733
05.10.2024 13:24:48:77,1039,2,0,1,121674,87726,129995,11,-675,735
05.10.2024 13:24:48:81,1040,2,0,1,121672,87720,129986,9,-681,733
05.10.2024 13:24:48:85,1041,2,0,1,121672,87716,129984,8,-680,738
05.10.2024 13:24:48:89,1042,2,0,1,121673,87721,129982,6,-681,739
05.10.2024 13:24:48:93,1043,2,0,1,121675,87716,129983,10,-687,735
05.10.2024 13:24:48:97,1044,2,0,1,121671,87719,129980,11,-685,732
05.10.2024 13:24:48:101,1045,2,0,1,121670,87715,129981,15,-686,736
05.10.2024 13:24:48:105,1046,2,0,1,121672,87714,129985,9,-682,739
05.10.2024 13:24:48:109,1047,2,0,1,121671,87709,129979,15,-685,740
05.10.2024 13:24:48:113,1048,2,0,1,121668,87711,129976,9,-681,734
05.10.2024 13:24:48:116,1049,2,0,1,121667,87708,129977,9,-681,734
05.10.2024 13:24:48:120,1050,2,0,1,121666,87698,129971,8,-684,738
05.10.2024 13:24:48:124,1051,2,0,1,121660,87709,129968,11,-683,736
05.10.2024 13:24:48:128,1052,2,0,1,121663,87704,129966,7,-680,733
05.10.2024 13:24:48:132,1053,2,0,1,121663,87703,129972,13,-685,741
05.10.2024 13:24:48:136,1054,2,0,1,121661,87699,129964,11,-675,739
05.10.2024 13:24:48:140,1055,2,0,1,121655,87689,129964,9,-684,735
05.10.2024 13:24:48:144,1056,2,0,1,121662,87688,129963,12,-674,739
05.10.2024 13:24:48:148,1057,2,0,1,121655,87692,129961,11,-678,735
05.10.2024 13:24:48:152,1058,2,0,1,121653,87685,129962,12,-677,737
05.10.2024 13:24:48:155,1059,2,0,1,121653,87674,129960,11,-683,740
05.10.2024 13:24:48:159,1060,2,0,1,121651,87669,129961,9,-680,735
05.10.2024 13:24:48:163,1061,2,0,1,121649,87664,129953,8,-682,739
05.10.2024 13:24:48:167,1062,2,0,1,121654,87661,129954,12,-681,735
05.10.2024 13:24:48:171,1063,2,0,1,121647,87662,129949,11,-679,737
05.10.2024 13:24:48:175,1064,2,0,1,121649,87656,129951,11,-676,733
05.10.2024 13:24:48:179,1065,2,0,1,121646,87656,129949,8,-676,739
05.10.2024 13:24:48:183,1066,2,0,1,121648,87663,129951,14,-680,737
05.10.2024 13:24:48:187,1067,2,0,1,121647,87650,129953,10,-677,737
05.10.2024 13:24:48:191,1068,2,0,1,121644,87652,129953,7,-681,736
05.10.2024 13:24:48:194,1069,2,0,1,121644,87653,129951,11,-681,737
05.10.2024 13:24:48:198,1070,2,0,1,121642,87649,129953,8,-683,739
05.10.2024 13:24:48:202,1071,2,0,1,121642,87649,129953,10,-680,736
05.10.2024 13:24:48:206,1072,2,0,1,121647,87649,129953,9,-682,732
05.10.2024 13:24:48:210,1073,2,0,1,121645,87649,129950,14,-678,734
05.10.2024 13:24:48:214,1074,2,0,1,121647,87640,129951,14,-678,734
05.10.2024 13:24:48:218,1075,2,0,1,121639,87646,129949,11,-683,732
05.10.2024 13:24:48:222,1076,2,0,1,121641,87648,129950,13,-687,732
05.10.2024 13:24:48:226,1077,2,0,1,121646,87641,129951,6,-683,732
05.10.2024 13:24:48:230,1078,2,0,1,121637,87647,129952,11,-687,732
05.10.2024 13:24:48:233,1079,2,0,1,121641,87641,129946,4,-686,732
05.10.2024 13:24:48:237,1080,2,0,1,121635,87643,129946,10,-684,729
05.10.2024 13:24:48:241,1081,2,0,1,121637,87644,129945,6,-682,736
05.10.2024 13:24:48:245,1082,2,0,1,121639,87641,129951,11,-680,742
05.10.2024 13:24:48:249,1083,2,0,1,121634,87640,129943,11,-685,736
05.10.2024 13:24:48:253,1084,2,0,1,121630,87652,129946,8,-682,737
05.10.2024 13:24:48:257,1085,2,0,1,121639,87646,129948,13,-690,740
05.10.2024 13:24:48:261,1086,2,0,1,121630,87648,129946,14,-685,732
05.10.2024 13:24:48:265,1087,2,0,1,121636,87643,129949,11,-683,738
05.10.2024 13:24:48:269,1088,2,0,1,121632,87643,129945,6,-684,738
05.10.2024 13:24:48:272,1089,2,0,1,121632,87642,129945,12,-682,736
05.10.2024 13:24:48:276,1090,2,0,1,121626,87639,129945,14,-677,736
05.10.2024 13:24:48:280,1091,2,0,1,121630,87649,129951,12,-677,734
05.10.2024 13:24:48:284,1092,2,0,1,121625,87639,129946,11,-679,734
05.10.2024 13:24:48:288,1093,2,0,1,121626,87645,129948,10,-680,734
05.10.2024 13:24:48:292,1094,2,0,1,121626,87647,129949,11,-680,737
05.10.2024 13:24:48:296,1095,2,0,1,121626,87643,129942,7,-676,738
05.10.2024 13:24:48:300,1096,2,0,1,121627,87646,129952,12,-680,733
05.10.2024 13:24:48:304,1097,2,0,1,121624,87639,129947,11,-675,735
05.10.2024 13:24:48:308,1098,2,0,1,121622,87648,129955,12,-679,735
05.10.2024 13:24:48:311,1099,2,0,1,121621,87650,129944,12,-679,735
05.10.2024 13:24:48:315,1100,2,0,1,121619,87650,129952,10,-679,741
05.10.2024 13:24:48:319,1101,2,0,1,121621,87646,129947,10,-685,735
05.10.2024 13:24:48:323,1102,2,0,1,121623,87647,129956,7,-684,740
05.10.2024 13:24:48:327,1103,2,0,1,121625,87648,129954,13,-684,735
05.10.2024 13:24:48:331,1104,2,0,1,121621,87652,129951,9,-683,737
05.10.2024 13:24:48:335,1105,2,0,1,121619,87653,129952,12,-688,737
05.10.2024 13:24:48:339,1106,2,0,1,121615,87649,129945,9,-681,741
05.10.2024 13:24:48:343,1107,2,0,1,121620,87653,129946,13,-676,734
05.10.2024 13:24:48:347,1108,2,0,1,121618,87654,129951,12,-676,736
05.10.2024 13:24:48:350,1109,2,0,1,121614,87658,129952,9,-683,732
05.10.2024 13:24:48:354,1110,2,0,1,121618,87653,129947,13,-680,736
05.10.2024 13:24:48:358,1111,2,0,1,121614,87661,129961,7,-688,734
05.10.2024 13:24:48:362,1112,2,0,1,121618,87662,129955,13,-688,740
05.10.2024 13:24:48:366,1113,2,0,1,121617,87660,129950,11,-683,737
05.10.2024 13:24:48:370,1114,2,0,1,121614,87664,129956,4,-682,734
05.10.2024 13:24:48:374,1115,2,0,1,121612,87661,129950,13,-680,733
05.10.2024 13:24:48:378,1116,2,0,1,121618,87668,129953,9,-681,732
05.10.2024 13:24:48:382,1117,2,0,1,121614,87661,129949,9,-683,736
05.10.2024 13:24:48:386,1118,2,0,1,121611,87671,129946,19,-678,735
05.10.2024 13:24:48:389,1119,2,0,1,121610,87668,129956,10,-681,736
05.10.2024 13:24:48:393,1120,2,0,1,121609,87662,129954,10,-682,736
05.10.2024 13:24:48:397,1121,2,0,1,121613,87669,129956,9,-683,736
05.10.2024 13:24:48:401,1122,2,0,1,121614,87667,129950,10,-686,736
05.10.2024 13:24:48:405,1123,2,0,1,121613,87680,129953,12,-680,737
05.10.2024 13:24:48:409,1124,2,0,1,121610,87670,129957,12,-680,737
05.10.2024 13:24:48:413,1125,2,0,1,121607,87670,129953,18,-681,737
05.10.2024 13:24:48:417,1126,2,0,1,121608,87684,129956,10,-681,738
05.10.2024 13:24:48:421,1127,2,0,1,121603,87676,129954,15,-681,737
05.10.2024 13:24:48:425,1128,2,0,1,121601,87680,129952,9,-684,744
05.10.2024 13:24:48:428,1129,2,0,1,121608,87675,129951,7,-685,736
05.10.2024 13:24:48:432,1130,2,0,1,121603,87684,129947,12,-682,740
05.10.2024 13:24:48:436,1131,2,0,1,121601,87693,129948,14,-683,735
05.10.2024 13:24:48:440,1132,2,0,1,121600,87690,129950,15,-679,736
05.10.2024 13:24:48:444,1133,2,0,1,121600,87682,129954,13,-677,737
05.10.2024 13:24:48:448,1134,2,0,1,121601,87690,129955,14,-675,737
05.10.2024 13:24:48:452,1135,2,0,1,121599,87692,129954,11,-678,734
05.10.2024 13:24:48:456,1136,2,0,1,121597,87678,129949,13,-680,737
05.10.2024 13:24:48:460,1137,2,0,1,121598,87690,129948,10,-680,736
05.10.2024 13:24:48:464,1138,2,0,1,121598,87692,129952,11,-683,736
05.10.2024 13:24:48:467,1139,2,0,1,121601,87697,129954,13,-686,734
05.10.2024 13:24:48:471,1140,2,0,1,121591,87701,129953,9,-681,735
05.10.2024 13:24:48:475,1141,2,0,1,121593,87707,129949,11,-684,737
05.10.2024 13:24:48:479,1142,2,0,1,121596,87701,129952,13,-681,739
05.10.2024 13:24:48:483,1143,2,0,1,121594,87710,129950,13,-682,742
05.10.2024 13:24:48:487,1144,2,0,1,121595,87703,129947,14,-680,735
05.10.2024 13:24:48:491,1145,2,0,1,121596,87706,129949,10,-686,737
05.10.2024 13:24:48:495,1146,2,0,1,121596,87707,129952,19,-688,738
05.10.2024 13:24:48:499,1147,2,0,1,121591,87712,129956,13,-683,733
05.10.2024 13:24:48:503,1148,2,0,1,121593,87709,129951,14,-680,735
05.10.2024 13:24:48:506,1149,2,0,1,121591,87708,129954,14,-680,735
05.10.2024 13:24:48:510,1150,2,0,1,121593,87711,129955,14,-677,736
05.10.2024 13:24:48:514,1151,2,0,1,121593,87713,129952,10,-678,735
05.10.2024 13:24:48:518,1152,2,0,1,121597,87719,129953,12,-686,734
05.10.2024 13:24:48:522,1153,2,0,1,121589,87723,129951,11,-681,739
05.10.2024 13:24:48:526,1154,2,0,1,121586,87727,129956,9,-687,734
05.10.2024 13:24:48:530,1155,2,0,1,121594,87720,129950,13,-684,737
05.10.2024 13:24:48:534,1156,2,0,1,121588,87720,129954,12,-682,741
05.10.2024 13:24:48:538,1157,2,0,1,121588,87723,129952,13,-685,734
05.10.2024 13:24:48:542,1158,2,0,1,121584,87720,129948,14,-682,739
05.10.2024 13:24:48:545,1159,2,0,1,121581,87728,129946,14,-681,734
05.10.2024 13:24:48:549,1160,2,0,1,121583,87728,129955,9,-684,739
05.10.2024 13:24:48:553,1161,2,0,1,121583,87731,129953,11,-682,738
05.10.2024 13:24:48:557,1162,2,0,1,121579,87734,129959,13,-684,738
05.10.2024 13:24:48:561,1163,2,0,1,121587,87736,129949,9,-685,737
05.10.2024 13:24:48:565,1164,2,0,1,121583,87734,129955,10,-683,737
05.10.2024 13:24:48:569,1165,2,0,1,121588,87736,129954,12,-681,734
05.10.2024 13:24:48:573,1166,2,0,1,121584,87747,129959,15,-681,732
05.10.2024 13:24:48:577,1167,2,0,1,121584,87743,129953,11,-679,729
05.10.2024 13:24:48:581,1168,2,0,1,121579,87748,129954,12,-676,732
05.10.2024 13:24:48:584,1169,2,0,1,121581,87754,129954,13,-681,733
05.10.2024 13:24:48:588,1170,2,0,1,121585,87756,129958,9,-684,738
05.10.2024 13:24:48:592,1171,2,0,1,121579,87757,129953,6,-682,735
05.10.2024 13:24:48:596,1172,2,0,1,121581,87765,129961,10,-686,738
05.10.2024 13:24:48:600,1173,2,0,1,121580,87757,129961,14,-686,734
05.10.2024 13:24:48:604,1174,2,0,1,121577,87771,129958,14,-686,734
05.10.2024 13:24:48:608,1175,2,0,1,121581,87774,129956,12,-677,733
05.10.2024 13:24:48:612,1176,2,0,1,121586,87772,129960,8,-680,736
05.10.2024 13:24:48:616,1177,2,0,1,121583,87770,129960,10,-679,735
05.10.2024 13:24:48:620,1178,2,0,1,121577,87782,129963,10,-681,732
05.10.2024 13:24:48:623,1179,2,0,1,121580,87787,129961,10,-687,737
05.10.2024 13:24:48:627,1180,2,0,1,121574,87792,129963,8,-682,732
05.10.2024 13:24:48:631,1181,2,0,1,121582,87781,129963,14,-684,738
05.10.2024 13:24:48:635,1182,2,0,1,121578,87795,129960,14,-686,734
05.10.2024 13:24:48:639,1183,2,0,1,121575,87802,129964,6,-685,733
05.10.2024 13:24:48:643,1184,2,0,1,121583,87794,129958,13,-680,737
05.10.2024 13:24:48:647,1185,2,0,1,121574,87804,129967,11,-682,732
05.10.2024 13:24:48:651,1186,2,0,1,121579,87793,129963,14,-683,736
05.10.2024 13:24:48:655,1187,2,0,1,121572,87804,129965,11,-680,741
05.10.2024 13:24:48:659,1188,2,0,1,121571,87802,129958,11,-682,739
05.10.2024 13:24:48:662,1189,2,0,1,121581,87810,129960,11,-684,737
05.10.2024 13:24:48:666,1190,2,0,1,121575,87812,129965,14,-689,738
05.10.2024 13:24:48:670,1191,2,0,1,121574,87814,129964,12,-687,738
05.10.2024 13:24:48:674,1192,2,0,1,121571,87817,129955,11,-682,731
05.10.2024 13:24:48:678,1193,2,0,1,121568,87826,129963,11,-678,738
05.10.2024 13:24:48:682,1194,2,0,1,121575,87816,129956,13,-675,739
05.10.2024 13:24:48:686,1195,2,0,1,121572,87824,129964,13,-683,738
05.10.2024 13:24:48:690,1196,2,0,1,121572,87827,129962,19,-682,736
05.10.2024 13:24:48:694,1197,2,0,1,121569,87823,129959,16,-680,737
05.10.2024 13:24:48:698,1198,2,0,1,121569,87823,129958,15,-682,737
05.10.2024 13:24:48:701,1199,2,0,1,121568,87826,129962,15,-682,737
05.10.2024 13:24:48:705,1200,2,0,1,121568,87831,129956,18,-679,732
05.10.2024 13:24:48:709,1201,2,0,1,121571,87827,129943,13,-681,729
05.10.2024 13:24:48:713,1202,2,0,1,121562,87832,129939,11,-682,732
05.10.2024 13:24:48:717,1203,2,0,1,121563,87827,129937,13,-684,732
05.10.2024 13:24:48:721,1204,2,0,1,121560,87819,129930,10,-682,736
05.10.2024 13:24:48:725,1205,2,0,1,121558,87811,129921,13,-684,733
05.10.2024 13:24:48:729,1206,2,0,1,121554,87808,129920,8,-688,732
05.10.2024 13:24:48:733,1207,2,0,1,121552,87797,129915,12,-688,734
05.10.2024 13:24:48:737,1208,2,0,1,121549,87775,129907,10,-686,732
05.10.2024 13:24:48:740,1209,2,0,1,121548,87775,129903,12,-687,738
05.10.2024 13:24:48:744,1210,2,0,1,121546,87759,129902,13,-679,735
05.10.2024 13:24:48:748,1211,2,0,1,121540,87750,129890,12,-679,734
05.10.2024 13:24:48:752,1212,2,0,1,121542,87739,129887,8,-685,735
05.10.2024 13:24:48:756,1213,2,0,1,121541,87717,129876,12,-680,737
05.10.2024 13:24:48:760,1214,2,0,1,121537,87711,129872,5,-687,736
05.10.2024 13:24:48:764,1215,2,0,1,121533,87697,129866,7,-685,734
05.10.2024 13:24:48:768,1216,2,0,1,121533,87674,129865,10,-687,738
05.10.2024 13:24:48:772,1217,2,0,1,121529,87661,129858,12,-684,735
05.10.2024 13:24:48:776,1218,2,0,1,121529,87653,129855,13,-685,736
05.10.2024 13:24:48:779,1219,2,0,1,121524,87635,129853,12,-680,732
05.10.2024 13:24:48:783,1220,2,0,1,121524,87629,129847,12,-678,735
05.10.2024 13:24:48:787,1221,2,0,1,121522,87622,129847,10,-678,734
05.10.2024 13:24:48:791,1222,2,0,1,121520,87603,129849,7,-683,735
05.10.2024 13:24:48:795,1223,2,0,1,121518,87594,129851,10,-683,733
05.10.2024 13:24:48:799,1224,2,0,1,121512,87589,129846,10,-683,733
05.10.2024 13:24:48:803,1225,2,0,1,121522,87583,129839,8,-683,736
05.10.2024 13:24:48:807,1226,2,0,1,121513,87572,129845,12,-682,732
05.10.2024 13:24:48:811,1227,2,0,1,121513,87560,129839,13,-679,733
05.10.2024 13:24:48:815,1228,2,0,1,121507,87549,129832,17,-682,731
05.10.2024 13:24:48:818,1229,2,0,1,121511,87544,129834,14,-679,738
05.10.2024 13:24:48:822,1230,2,0,1,121505,87533,129832,7,-681,737
05.10.2024 13:24:48:826,1231,2,0,1,121504,87525,129834,8,-684,738
05.10.2024 13:24:48:830,1232,2,0,1,121509,87519,129831,18,-685,735
05.10.2024 13:24:48:834,1233,2,0,1,121505,87513,129833,14,-685,736
05.10.2024 13:24:48:838,1234,2,0,1,121510,87512,129823,16,-680,736
05.10.2024 13:24:48:842,1235,2,0,1,121502,87510,129831,19,-680,737
05.10.2024 13:24:48:846,1236,2,0,1,121502,87504,129831,14,-680,734
05.10.2024 13:24:48:850,1237,2,0,1,121498,87498,129830,15,-677,734
05.10.2024 13:24:48:854,1238,2,0,1,121493,87492,129830,12,-679,732
05.10.2024 13:24:48:857,1239,2,0,1,121500,87483,129832,11,-679,741
05.10.2024 13:24:48:861,1240,2,0,1,121498,87493,129828,11,-679,735
05.10.2024 13:24:48:865,1241,2,0,1,121495,87480,129828,10,-681,737
05.10.2024 13:24:48:869,1242,2,0,1,121492,87479,129829,7,-679,732
05.10.2024 13:24:48:873,1243,2,0,1,121494,87477,129827,15,-675,733
05.10.2024 13:24:48:877,1244,2,0,1,121493,87471,129826,11,-680,732
05.10.2024 13:24:48:881,1245,2,0,1,121489,87465,129832,10,-676,736
05.10.2024 13:24:48:885,1246,2,0,1,121492,87459,129826,5,-679,740
05.10.2024 13:24:48:889,1247,2,0,1,121489,87471,129828,9,-682,736
05.10.2024 13:24:48:893,1248,2,0,1,121488,87462,129827,7,-686,738
05.10.2024 13:24:48:896,1249,2,0,1,121490,87462,129830,7,-686,738
05.10.2024 13:24:48:900,1250,2,0,1,121491,87464,129830,13,-688,736
05.10.2024 13:24:48:904,1251,2,0,1,121490,87460,129834,16,-685,735
05.10.2024 13:24:48:908,1252,2,0,1,121494,87465,129831,14,-683,737
05.10.2024 13:24:48:912,1253,2,0,1,121489,87460,129830,11,-680,732
05.10.2024 13:24:48:916,1254,2,0,1,121484,87473,129834,11,-679,730
05.10.2024 13:24:48:920,1255,2,0,1,121493,87463,129837,14,-685,735
05.10.2024 13:24:48:924,1256,2,0,1,121492,87469,129833,11,-677,737
05.10.2024 13:24:48:928,1257,2,0,1,121488,87470,129838,8,-682,732
05.10.2024 13:24:48:932,1258,2,0,1,121490,87466,129832,9,-683,734
05.10.2024 13:24:48:935,1259,2,0,1,121488,87470,129834,9,-683,734
05.10.2024 13:24:48:939,1260,2,0,1,121488,87478,129839,12,-683,734
05.10.2024 13:24:48:943,1261,2,0,1,121488,87473,129837,8,-680,735
05.10.2024 13:24:48:947,1262,2,0,1,121488,87471,129837,15,-680,732
05.10.2024 13:24:48:951,1263,2,0,1,121489,87474,129836,12,-679,732
05.10.2024 13:24:48:955,1264,2,0,1,121494,87474,129840,9,-687,734
05.10.2024 13:24:48:959,1265,2,0,1,121489,87479,129842,11,-688,737
05.10.2024 13:24:48:963,1266,2,0,1,121486,87478,129837,12,-686,740
05.10.2024 13:24:48:967,1267,2,0,1,121488,87479,129838,12,-686,739
05.10.2024 13:24:48:971,1268,2,0,1,121490,87477,129835,13,-686,737
05.10.2024 13:24:48:974,1269,2,0,1,121487,87477,129839,12,-684,732
05.10.2024 13:24:48:978,1270,2,0,1,121487,87471,129832,17,-675,734
05.10.2024 13:24:48:982,1271,2,0,1,121485,87492,129837,12,-684,736
05.10.2024 13:24:48:986,1272,2,0,1,121485,87481,129831,9,-682,734
05.10.2024 13:24:48:990,1273,2,0,1,121479,87482,129834,9,-684,738
05.10.2024 13:24:48:994,1274,2,0,1,121482,87480,129837,9,-684,738
05.10.2024 13:24:48:998,1275,2,0,1,121488,87476,129828,13,-688,738
05.10.2024 13:24:49:2,1276,2,0,1,121483,87476,129827,14,-686,736
05.10.2024 13:24:49:6,1277,2,0,1,121479,87480,129824,9,-679,734
05.10.2024 13:24:49:10,1278,2,0,1,121478,87474,129828,14,-678,738
05.10.2024 13:24:49:13,1279,2,0,1,121475,87469,129824,14,-678,737
05.10.2024 13:24:49:17,1280,2,0,1,121476,87475,129822,12,-682,739
05.10.2024 13:24:49:21,1281,2,0,1,121479,87468,129824,9,-680,738
05.10.2024 13:24:49:25,1282,2,0,1,121472,87470,129824,14,-677,739
05.10.2024 13:24:49:29,1283,2,0,1,121472,87469,129820,9,-683,739
05.10.2024 13:24:49:33,1284,2,0,1,121471,87475,129820,10,-681,733
05.10.2024 13:24:49:37,1285,2,0,1,121469,87460,129819,14,-682,739
05.10.2024 13:24:49:41,1286,2,0,1,121467,87464,129813,8,-681,736
05.10.2024 13:24:49:45,1287,2,0,1,121470,87461,129815,12,-678,737
05.10.2024 13:24:49:49,1288,2,0,1,121459,87453,129809,11,-680,734
05.10.2024 13:24:49:52,1289,2,0,1,121463,87455,129810,13,-681,737
05.10.2024 13:24:49:56,1290,2,0,1,121471,87448,129813,6,-680,737
05.10.2024 13:24:49:60,1291,2,0,1,121463,87452,129806,11,-684,736
05.10.2024 13:24:49:64,1292,2,0,1,121465,87454,129809,11,-683,737
05.10.2024 13:24:49:68,1293,2,0,1,121464,87450,129804,10,-691,733
05.10.2024 13:24:49:72,1294,2,0,1,121461,87455,129805,13,-685,738
05.10.2024 13:24:49:76,1295,2,0,1,121463,87456,129805,13,-684,736
05.10.2024 13:24:49:80,1296,2,0,1,121459,87458,129810,10,-683,737
05.10.2024 13:24:49:84,1297,2,0,1,121465,87448,129805,12,-683,735
05.10.2024 13:24:49:88,1298,2,0,1,121461,87451,129812,11,-688,733
05.10.2024 13:24:49:91,1299,2,0,1,121463,87452,129809,11,-688,733
05.10.2024 13:24:49:95,1300,2,0,1,121466,87448,129810,7,-682,741
05.10.2024 13:24:49:99,1301,2,0,1,121461,87452,129807,11,-684,736
05.10.2024 13:24:49:103,1302,2,0,1,121459,87445,129815,12,-688,734
05.10.2024 13:24:49:107,1303,2,0,1,121464,87448,129803,9,-684,732
05.10.2024 13:24:49:111,1304,2,0,1,121458,87452,129803,8,-680,743
05.10.2024 13:24:49:115,1305,2,0,1,121460,87446,129802,12,-681,732
05.10.2024 13:24:49:119,1306,2,0,1,121459,87453,129802,9,-683,738
05.10.2024 13:24:49:123,1307,2,0,1,121455,87452,129814,8,-684,735
05.10.2024 13:24:49:127,1308,2,0,1,121458,87455,129811,11,-678,733
05.10.2024 13:24:49:130,1309,2,0,1,121461,87443,129810,14,-683,736
05.10.2024 13:24:49:134,1310,2,0,1,121455,87458,129816,12,-683,734
05.10.2024 13:24:49:138,1311,2,0,1,121459,87465,129816,12,-686,733
05.10.2024 13:24:49:142,1312,2,0,1,121459,87461,129809,11,-681,736
05.10.2024 13:24:49:146,1313,2,0,1,121459,87457,129811,15,-681,738
05.10.2024 13:24:49:150,1314,2,0,1,121455,87465,129812,9,-680,734
05.10.2024 13:24:49:154,1315,2,0,1,121461,87467,129812,13,-676,734
05.10.2024 13:24:49:158,1316,2,0,1,121458,87460,129807,12,-687,736
05.10.2024 13:24:49:162,1317,2,0,1,121452,87473,129812,9,-687,740
05.10.2024 13:24:49:166,1318,2,0,1,121454,87475,129814,12,-685,735
05.10.2024 13:24:49:169,1319,2,0,1,121452,87471,129805,10,-682,733
05.10.2024 13:24:49:173,1320,2,0,1,121451,87472,129814,12,-681,738
05.10.2024 13:24:49:177,1321,2,0,1,121452,87479,129813,13,-678,738
05.10.2024 13:24:49:181,1322,2,0,1,121452,87480,129812,10,-682,731
05.10.2024 13:24:49:185,1323,2,0,1,121447,87487,129813,14,-678,732
05.10.2024 13:24:49:189,1324,2,0,1,121455,87467,129818,14,-678,732
05.10.2024 13:24:49:193,1325,2,0,1,121449,87479,129810,7,-687,735
05.10.2024 13:24:49:197,1326,2,0,1,121451,87479,129818,13,-687,733
05.10.2024 13:24:49:201,1327,2,0,1,121453,87488,129812,11,-684,732
05.10.2024 13:24:49:205,1328,2,0,1,121447,87494,129813,13,-690,732
05.10.2024 13:24:49:208,1329,2,0,1,121453,87489,129810,11,-681,736
05.10.2024 13:24:49:212,1330,2,0,1,121451,87490,129807,8,-682,735
05.10.2024 13:24:49:216,1331,2,0,1,121450,87493,129820,11,-682,732
05.10.2024 13:24:49:220,1332,2,0,1,121449,87499,129814,11,-684,734
05.10.2024 13:24:49:224,1333,2,0,1,121449,87505,129813,11,-688,735
05.10.2024 13:24:49:228,1334,2,0,1,121453,87499,129812,12,-686,732
05.10.2024 13:24:49:232,1335,2,0,1,121444,87503,129811,12,-685,733
05.10.2024 13:24:49:236,1336,2,0,1,121448,87506,129816,14,-684,733
05.10.2024 13:24:49:240,1337,2,0,1,121447,87519,129818,12,-679,734
05.10.2024 13:24:49:244,1338,2,0,1,121447,87514,129815,9,-684,732
05.10.2024 13:24:49:247,1339,2,0,1,121444,87514,129815,8,-681,736
05.10.2024 13:24:49:251,1340,2,0,1,121447,87515,129820,10,-682,732
05.10.2024 13:24:49:255,1341,2,0,1,121447,87518,129819,10,-688,732
05.10.2024 13:24:49:259,1342,2,0,1,121442,87524,129821,7,-683,736
05.10.2024 13:24:49:263,1343,2,0,1,121444,87522,129811,7,-689,733
05.10.2024 13:24:49:267,1344,2,0,1,121442,87529,129818,8,-684,736
05.10.2024 13:24:49:271,1345,2,0,1,121445,87535,129820,10,-686,734
05.10.2024 13:24:49:275,1346,2,0,1,121443,87540,129812,15,-684,731
05.10.2024 13:24:49:279,1347,2,0,1,121442,87535,129819,12,-683,733
05.10.2024 13:24:49:283,1348,2,0,1,121440,87540,129815,10,-682,731
05.10.2024 13:24:49:286,1349,2,0,1,121443,87547,129811,10,-682,731
05.10.2024 13:24:49:290,1350,2,0,1,121441,87547,129823,12,-679,734
05.10.2024 13:24:49:294,1351,2,0,1,121444,87561,129810,11,-684,735
05.10.2024 13:24:49:298,1352,2,0,1,121438,87560,129819,10,-682,735
05.10.2024 13:24:49:302,1353,2,0,1,121438,87559,129815,9,-679,734
05.10.2024 13:24:49:306,1354,2,0,1,121437,87558,129815,13,-686,741
05.10.2024 13:24:49:310,1355,2,0,1,121440,87556,129824,8,-681,733
05.10.2024 13:24:49:314,1356,2,0,1,121441,87552,129817,4,-687,733
05.10.2024 13:24:49:318,1357,2,0,1,121434,87568,129819,12,-679,736
05.10.2024 13:24:49:322,1358,2,0,1,121439,87571,129816,12,-677,737
05.10.2024 13:24:49:325,1359,2,0,1,121432,87570,129816,14,-681,734
05.10.2024 13:24:49:329,1360,2,0,1,121434,87568,129821,13,-683,732
05.10.2024 13:24:49:333,1361,2,0,1,121431,87576,129816,7,-685,737
05.10.2024 13:24:49:337,1362,2,0,1,121431,87581,129820,7,-687,731
05.10.2024 13:24:49:341,1363,2,0,1,121437,87580,129817,9,-680,732
05.10.2024 13:24:49:345,1364,2,0,1,121432,87585,129820,10,-682,733
05.10.2024 13:24:49:349,1365,2,0,1,121432,87585,129817,8,-676,737
05.10.2024 13:24:49:353,1366,2,0,1,121430,87590,129818,11,-683,731
05.10.2024 13:24:49:357,1367,2,0,1,121433,87592,129821,4,-683,733
05.10.2024 13:24:49:361,1368,2,0,1,121428,87595,129817,10,-682,741
05.10.2024 13:24:49:364,1369,2,0,1,121427,87601,129820,9,-684,736
05.10.2024 13:24:49:368,1370,2,0,1,121435,87599,129820,4,-685,736
05.10.2024 13:24:49:372,1371,2,0,1,121428,87601,129820,6,-685,736
05.10.2024 13:24:49:376,1372,2,0,1,121434,87597,129818,9,-688,739
05.10.2024 13:24:49:380,1373,2,0,1,121427,87611,129822,11,-681,734
05.10.2024 13:24:49:384,1374,2,0,1,121428,87610,129826,11,-681,734
05.10.2024 13:24:49:388,1375,2,0,1,121425,87615,129821,10,-684,735
05.10.2024 13:24:49:392,1376,2,0,1,121426,87619,129824,8,-681,736
05.10.2024 13:24:49:396,1377,2,0,1,121427,87615,129821,7,-685,733
05.10.2024 13:24:49:400,1378,2,0,1,121427,87627,129824,10,-681,739
05.10.2024 13:24:49:403,1379,2,0,1,121429,87629,129828,10,-685,732
05.10.2024 13:24:49:407,1380,2,0,1,121427,87627,129826,9,-687,734
05.10.2024 13:24:49:411,1381,2,0,1,121431,87631,129824,9,-681,732
05.10.2024 13:24:49:415,1382,2,0,1,121426,87635,129825,10,-682,732
05.10.2024 13:24:49:419,1383,2,0,1,121424,87639,129821,10,-681,732
05.10.2024 13:24:49:423,1384,2,0,1,121423,87646,129829,9,-681,734
05.10.2024 13:24:49:427,1385,2,0,1,121426,87659,129826,11,-687,735
05.10.2024 13:24:49:431,1386,2,0,1,121423,87651,129829,6,-683,735
05.10.2024 13:24:49:435,1387,2,0,1,121428,87655,129830,12,-686,735
05.10.2024 13:24:49:439,1388,2,0,1,121424,87665,129828,7,-686,737
05.10.2024 13:24:49:442,1389,2,0,1,121428,87657,129833,10,-687,729
05.10.2024 13:24:49:446,1390,2,0,1,121423,87664,129832,10,-681,738
05.10.2024 13:24:49:450,1391,2,0,1,121425,87658,129839,5,-681,732
05.10.2024 13:24:49:454,1392,2,0,1,121424,87660,129826,12,-683,737
05.10.2024 13:24:49:458,1393,2,0,1,121420,87666,129827,12,-681,738
05.10.2024 13:24:49:462,1394,2,0,1,121424,87674,129829,11,-681,738
05.10.2024 13:24:49:466,1395,2,0,1,121422,87690,129829,9,-690,736
05.10.2024 13:24:49:470,1396,2,0,1,121419,87678,129828,11,-683,736
05.10.2024 13:24:49:474,1397,2,0,1,121420,87677,129823,10,-680,738
05.10.2024 13:24:49:478,1398,2,0,1,121421,87684,129827,13,-680,735
05.10.2024 13:24:49:481,1399,2,0,1,121420,87682,129833,13,-680,735
05.10.2024 13:24:49:485,1400,2,0,1,121414,87706,129833,10,-680,734
05.10.2024 13:24:49:489,1401,2,0,1,121417,87695,129828,11,-679,739
05.10.2024 13:24:49:493,1402,2,0,1,121417,87692,129826,10,-679,742
05.10.2024 13:24:49:497,1403,2,0,1,121418,87707,129835,11,-675,739
05.10.2024 13:24:49:501,1404,2,0,1,121418,87696,129829,14,-684,746
05.10.2024 13:24:49:505,1405,2,0,1,121415,87705,129829,13,-685,737
05.10.2024 13:24:49:509,1406,2,0,1,121415,87715,129830,15,-678,742
05.10.2024 13:24:49:513,1407,2,0,1,121415,87712,129833,17,-682,740
05.10.2024 13:24:49:517,1408,2,0,1,121416,87713,129825,14,-677,736
05.10.2024 13:24:49:520,1409,2,0,1,121414,87713,129824,14,-678,736
05.10.2024 13:24:49:524,1410,2,0,1,121414,87706,129827,10,-679,738
05.10.2024 13:24:49:528,1411,2,0,1,121410,87711,129816,9,-680,738
05.10.2024 13:24:49:532,1412,2,0,1,121405,87707,129810,13,-681,738
05.10.2024 13:24:49:536,1413,2,0,1,121407,87702,129811,13,-686,732
05.10.2024 13:24:49:540,1414,2,0,1,121407,87710,129802,13,-681,731
05.10.2024 13:24:49:544,1415,2,0,1,121405,87709,129794,10,-688,732
05.10.2024 13:24:49:548,1416,2,0,1,121401,87695,129791,11,-682,729
05.10.2024 13:24:49:552,1417,2,0,1,121399,87686,129786,11,-677,731
05.10.2024 13:24:49:556,1418,2,0,1,121395,87679,129774,10,-684,733
05.10.2024 13:24:49:559,1419,2,0,1,121393,87664,129773,10,-684,736
05.10.2024 13:24:49:563,1420,2,0,1,121390,87660,129766,8,-687,734
05.10.2024 13:24:49:567,1421,2,0,1,121393,87648,129769,7,-686,734
05.10.2024 13:24:49:571,1422,2,0,1,121389,87635,129756,8,-685,734
05.10.2024 13:24:49:575,1423,2,0,1,121386,87621,129757,11,-691,729
05.10.2024 13:24:49:579,1424,2,0,1,121393,87614,129748,11,-691,729
05.10.2024 13:24:49:583,1425,2,0,1,121385,87599,129739,8,-684,733
05.10.2024 13:24:49:587,1426,2,0,1,121381,87586,129741,4,-685,731
05.10.2024 13:24:49:591,1427,2,0,1,121379,87573,129739,5,-687,733
05.10.2024 13:24:49:595,1428,2,0,1,121378,87561,129729,6,-684,738
05.10.2024 13:24:49:598,1429,2,0,1,121374,87541,129723,4,-686,740
05.10.2024 13:24:49:602,1430,2,0,1,121373,87531,129721,8,-689,733
05.10.2024 13:24:49:606,1431,2,0,1,121365,87525,129717,6,-685,736
05.10.2024 13:24:49:610,1432,2,0,1,121369,87502,129713,12,-686,736
05.10.2024 13:24:49:614,1433,2,0,1,121364,87488,129710,9,-681,734
05.10.2024 13:24:49:618,1434,2,0,1,121364,87490,129705,11,-681,732
05.10.2024 13:24:49:622,1435,2,0,1,121361,87473,129712,7,-679,734
05.10.2024 13:24:49:626,1436,2,0,1,121361,87468,129701,5,-684,736
05.10.2024 13:24:49:630,1437,2,0,1,121357,87450,129694,4,-689,734
05.10.2024 13:24:49:634,1438,2,0,1,121352,87443,129697,11,-686,733
05.10.2024 13:24:49:637,1439,2,0,1,121351,87434,129697,8,-680,735
05.10.2024 13:24:49:641,1440,2,0,1,121355,87420,129691,12,-679,732
05.10.2024 13:24:49:645,1441,2,0,1,121350,87421,129697,12,-680,736
05.10.2024 13:24:49:649,1442,2,0,1,121345,87427,129685,11,-679,733
05.10.2024 13:24:49:653,1443,2,0,1,121343,87404,129693,9,-679,738
05.10.2024 13:24:49:657,1444,2,0,1,121342,87394,129690,16,-679,735
05.10.2024 13:24:49:661,1445,2,0,1,121342,87400,129689,12,-681,743
05.10.2024 13:24:49:665,1446,2,0,1,121341,87376,129686,12,-686,742
05.10.2024 13:24:49:669,1447,2,0,1,121339,87374,129682,11,-682,738
05.10.2024 13:24:49:673,1448,2,0,1,121336,87371,129687,11,-682,744
05.10.2024 13:24:49:676,1449,2,0,1,121342,87367,129688,11,-682,744
05.10.2024 13:24:49:680,1450,2,0,1,121333,87374,129682,16,-679,738
05.10.2024 13:24:49:684,1451,2,0,1,121337,87349,129680,16,-679,735
05.10.2024 13:24:49:688,1452,2,0,1,121336,87347,129680,11,-677,739
05.10.2024 13:24:49:692,1453,2,0,1,121328,87348,129680,8,-681,737
05.10.2024 13:24:49:696,1454,2,0,1,121333,87345,129679,10,-683,738
05.10.2024 13:24:49:700,1455,2,0,1,121329,87338,129681,7,-679,739
05.10.2024 13:24:49:704,1456,2,0,1,121333,87337,129677,11,-677,736
05.10.2024 13:24:49:708,1457,2,0,1,121329,87334,129677,13,-678,735
05.10.2024 13:24:49:712,1458,2,0,1,121324,87346,129682,10,-681,734
05.10.2024 13:24:49:715,1459,2,0,1,121327,87331,129674,14,-684,732
05.10.2024 13:24:49:719,1460,2,0,1,121325,87331,129675,13,-679,733
05.10.2024 13:24:49:723,1461,2,0,1,121325,87337,129682,9,-685,732
05.10.2024 13:24:49:727,1462,2,0,1,121326,87328,129674,8,-686,733
05.10.2024 13:24:49:731,1463,2,0,1,121325,87329,129682,8,-691,734
05.10.2024 13:24:49:735,1464,2,0,1,121325,87332,129672,8,-687,734
05.10.2024 13:24:49:739,1465,2,0,1,121326,87330,129675,9,-681,734
05.10.2024 13:24:49:743,1466,2,0,1,121324,87332,129676,8,-687,734
05.10.2024 13:24:49:747,1467,2,0,1,121325,87326,129676,3,-681,740
05.10.2024 13:24:49:751,1468,2,0,1,121323,87335,129676,9,-681,737
05.10.2024 13:24:49:754,1469,2,0,1,121326,87332,129672,7,-678,738
05.10.2024 13:24:49:758,1470,2,0,1,121322,87334,129675,7,-682,741
05.10.2024 13:24:49:762,1471,2,0,1,121320,87337,129674,6,-683,740
05.10.2024 13:24:49:766,1472,2,0,1,121322,87333,129676,3,-681,738
05.10.2024 13:24:49:770,1473,2,0,1,121319,87330,129676,10,-680,736
05.10.2024 13:24:49:774,1474,2,0,1,121319,87331,129674,10,-680,736
05.10.2024 13:24:49:778,1475,2,0,1,121317,87339,129682,10,-678,735
05.10.2024 13:24:49:782,1476,2,0,1,121320,87332,129676,6,-679,736
05.10.2024 13:24:49:786,1477,2,0,1,121314,87345,129679,10,-676,737
05.10.2024 13:24:49:790,1478,2,0,1,121318,87336,129678,8,-679,733
05.10.2024 13:24:49:793,1479,2,0,1,121318,87341,129682,8,-682,737
05.10.2024 13:24:49:797,1480,2,0,1,121317,87337,129679,8,-681,735
05.10.2024 13:24:49:801,1481,2,0,1,121320,87343,129682,13,-681,736
05.10.2024 13:24:49:805,1482,2,0,1,121321,87343,129672,12,-678,735
05.10.2024 13:24:49:809,1483,2,0,1,121315,87343,129680,14,-679,737
05.10.2024 13:24:49:813,1484,2,0,1,121318,87348,129672,12,-680,732
05.10.2024 13:24:49:817,1485,2,0,1,121316,87345,129676,12,-681,734
05.10.2024 13:24:49:821,1486,2,0,1,121316,87341,129673,10,-682,736
05.10.2024 13:24:49:825,1487,2,0,1,121315,87351,129671,8,-683,731
05.10.2024 13:24:49:829,1488,2,0,1,121314,87348,129676,11,-685,735
05.10.2024 13:24:49:832,1489,2,0,1,121316,87352,129667,10,-685,738
05.10.2024 13:24:49:836,1490,2,0,1,121314,87343,129669,12,-690,734
05.10.2024 13:24:49:840,1491,2,0,1,121317,87348,129673,9,-687,738
05.10.2024 13:24:49:844,1492,2,0,1,121314,87342,129669,6,-690,731
05.10.2024 13:24:49:848,1493,2,0,1,121314,87347,129668,11,-683,736
05.10.2024 13:24:49:852,1494,2,0,1,121312,87350,129667,5,-682,739
05.10.2024 13:24:49:856,1495,2,0,1,121314,87350,129664,9,-686,736
05.10.2024 13:24:49:860,1496,2,0,1,121310,87353,129662,6,-681,738
05.10.2024 13:24:49:864,1497,2,0,1,121311,87340,129660,12,-682,736
05.10.2024 13:24:49:868,1498,2,0,1,121307,87339,129657,5,-684,738
05.10.2024 13:24:49:871,1499,2,0,1,121301,87341,129656,5,-684,738
05.10.2024 13:24:49:875,1500,2,0,1,121305,87334,129653,7,-683,735
05.10.2024 13:24:49:879,1501,2,0,1,121301,87334,129656,10,-678,742
05.10.2024 13:24:49:883,1502,2,0,1,121306,87335,129652,9,-674,737
05.10.2024 13:24:49:887,1503,2,0,1,121306,87329,129651,18,-677,736
05.10.2024 13:24:49:891,1504,2,0,1,121300,87334,129649,13,-682,738
05.10.2024 13:24:49:895,1505,2,0,1,121299,87334,129653,9,-676,738
05.10.2024 13:24:49:899,1506,2,0,1,121299,87323,129651,12,-678,735
05.10.2024 13:24:49:903,1507,2,0,1,121299,87332,129649,11,-683,732
05.10.2024 13:24:49:907,1508,2,0,1,121295,87334,129643,12,-680,730
05.10.2024 13:24:49:910,1509,2,0,1,121297,87329,129639,10,-679,736
05.10.2024 13:24:49:914,1510,2,0,1,121296,87337,129639,15,-681,733
05.10.2024 13:24:49:918,1511,2,0,1,121292,87326,129640,13,-675,738
05.10.2024 13:24:49:922,1512,2,0,1,121293,87326,129633,12,-679,736
05.10.2024 13:24:49:926,1513,2,0,1,121291,87335,129641,9,-676,733
05.10.2024 13:24:49:930,1514,2,0,1,121290,87326,129643,11,-686,736
05.10.2024 13:24:49:934,1515,2,0,1,121289,87334,129646,8,-680,739
05.10.2024 13:24:49:938,1516,2,0,1,121294,87333,129648,12,-689,741
05.10.2024 13:24:49:942,1517,2,0,1,121292,87332,129646,10,-684,733
05.10.2024 13:24:49:946,1518,2,0,1,121296,87332,129651,14,-681,734
05.10.2024 13:24:49:949,1519,2,0,1,121294,87324,129647,12,-684,732
05.10.2024 13:24:49:953,1520,2,0,1,121292,87335,129646,9,-682,736
05.10.2024 13:24:49:957,1521,2,0,1,121292,87334,129646,12,-680,738
05.10.2024 13:24:49:961,1522,2,0,1,121293,87336,129648,7,-682,734
05.10.2024 13:24:49:965,1523,2,0,1,121293,87341,129646,8,-684,735
05.10.2024 13:24:49:969,1524,2,0,1,121291,87346,129648,8,-684,735
05.10.2024 13:24:49:973,1525,2,0,1,121285,87344,129648,7,-684,734
05.10.2024 13:24:49:977,1526,2,0,1,121291,87332,129650,8,-680,737
05.10.2024 13:24:49:981,1527,2,0,1,121284,87334,129644,8,-681,738
05.10.2024 13:24:49:985,1528,2,0,1,121287,87343,129645,10,-676,735
05.10.2024 13:24:49:988,1529,2,0,1,121287,87340,129646,10,-680,738
05.10.2024 13:24:49:992,1530,2,0,1,121284,87351,129648,10,-680,738
05.10.2024 13:24:49:996,1531,2,0,1,121287,87349,129652,11,-684,740
05.10.2024 13:24:50:0,1532,2,0,1,121284,87350,129646,9,-685,738
05.10.2024 13:24:50:4,1533,2,0,1,121285,87355,129650,8,-680,733
05.10.2024 13:24:50:8,1534,2,0,1,121281,87368,129645,10,-684,732
05.10.2024 13:24:50:12,1535,2,0,1,121283,87349,129642,12,-678,733
05.10.2024 13:24:50:16,1536,2,0,1,121281,87362,129646,11,-677,732
05.10.2024 13:24:50:20,1537,2,0,1,121288,87359,129651,13,-676,733
05.10.2024 13:24:50:24,1538,2,0,1,121278,87360,129643,13,-678,740
05.10.2024 13:24:50:27,1539,2,0,1,121280,87368,129648,12,-686,733
05.10.2024 13:24:50:31,1540,2,0,1,121284,87376,129647,8,-683,735
05.10.2024 13:24:50:35,1541,2,0,1,121281,87373,129650,8,-687,735
05.10.2024 13:24:50:39,1542,2,0,1,121283,87377,129651,7,-690,739
05.10.2024 13:24:50:43,1543,2,0,1,121279,87377,129646,10,-685,735
05.10.2024 13:24:50:47,1544,2,0,1,121282,87383,129655,7,-683,740
05.10.2024 13:24:50:51,1545,2,0,1,121283,87385,129650,11,-682,739
05.10.2024 13:24:50:55,1546,2,0,1,121280,87389,129650,11,-683,737
05.10.2024 13:24:50:59,1547,2,0,1,121278,87395,129651,9,-681,739
05.10.2024 13:24:50:63,1548,2,0,1,121280,87413,129652,6,-685,737
05.10.2024 13:24:50:66,1549,2,0,1,121284,87399,129645,6,-685,737
05.10.2024 13:24:50:70,1550,2,0,1,121276,87403,129650,8,-684,735
05.10.2024 13:24:50:74,1551,2,0,1,121281,87410,129659,10,-685,737
05.10.2024 13:24:50:78,1552,2,0,1,121275,87415,129655,6,-682,734
05.10.2024 13:24:50:82,1553,2,0,1,121277,87407,129654,10,-678,731
05.10.2024 13:24:50:86,1554,2,0,1,121277,87416,129651,9,-679,732
05.10.2024 13:24:50:90,1555,2,0,1,121276,87428,129652,8,-680,736
05.10.2024 13:24:50:94,1556,2,0,1,121273,87427,129654,11,-682,736
05.10.2024 13:24:50:98,1557,2,0,1,121277,87430,129656,11,-685,736
05.10.2024 13:24:50:102,1558,2,0,1,121276,87439,129657,8,-687,742
05.10.2024 13:24:50:105,1559,2,0,1,121271,87444,129655,9,-688,737
05.10.2024 13:24:50:109,1560,2,0,1,121277,87443,129654,8,-682,737
05.10.2024 13:24:50:113,1561,2,0,1,121275,87437,129651,13,-683,735
05.10.2024 13:24:50:117,1562,2,0,1,121269,87445,129660,14,-680,732
05.10.2024 13:24:50:121,1563,2,0,1,121272,87446,129652,8,-678,736
05.10.2024 13:24:50:125,1564,2,0,1,121273,87450,129653,10,-676,738
05.10.2024 13:24:50:129,1565,2,0,1,121268,87462,129657,11,-681,736
05.10.2024 13:24:50:133,1566,2,0,1,121272,87455,129655,8,-676,739
05.10.2024 13:24:50:137,1567,2,0,1,121271,87463,129656,6,-685,740
05.10.2024 13:24:50:141,1568,2,0,1,121271,87472,129661,12,-688,738
05.10.2024 13:24:50:144,1569,2,0,1,121272,87470,129658,12,-680,739
05.10.2024 13:24:50:148,1570,2,0,1,121268,87480,129661,13,-678,730
05.10.2024 13:24:50:152,1571,2,0,1,121267,87476,129650,12,-675,740
05.10.2024 13:24:50:156,1572,2,0,1,121266,87481,129658,13,-681,738
05.10.2024 13:24:50:160,1573,2,0,1,121265,87483,129664,5,-677,735
05.10.2024 13:24:50:164,1574,2,0,1,121268,87481,129659,5,-677,735
05.10.2024 13:24:50:168,1575,2,0,1,121267,87493,129655,6,-686,739
05.10.2024 13:24:50:172,1576,2,0,1,121265,87497,129660,6,-682,734
05.10.2024 13:24:50:176,1577,2,0,1,121268,87494,129661,13,-678,737
05.10.2024 13:24:50:180,1578,2,0,1,121266,87500,129665,12,-681,737
05.10.2024 13:24:50:183,1579,2,0,1,121269,87510,129658,14,-680,736
05.10.2024 13:24:50:187,1580,2,0,1,121263,87504,129660,6,-675,735
05.10.2024 13:24:50:191,1581,2,0,1,121269,87508,129663,12,-677,734
05.10.2024 13:24:50:195,1582,2,0,1,121264,87514,129658,8,-681,736
05.10.2024 13:24:50:199,1583,2,0,1,121266,87513,129662,7,-685,738
05.10.2024 13:24:50:203,1584,2,0,1,121269,87519,129660,12,-685,734
05.10.2024 13:24:50:207,1585,2,0,1,121265,87526,129667,9,-685,734
05.10.2024 13:24:50:211,1586,2,0,1,121264,87538,129668,5,-683,737
05.10.2024 13:24:50:215,1587,2,0,1,121263,87536,129666,12,-682,734
05.10.2024 13:24:50:219,1588,2,0,1,121263,87538,129667,9,-682,734
05.10.2024 13:24:50:222,1589,2,0,1,121262,87547,129669,6,-682,732
05.10.2024 13:24:50:226,1590,2,0,1,121263,87544,129670,10,-680,737
05.10.2024 13:24:50:230,1591,2,0,1,121264,87551,129665,7,-681,733
05.10.2024 13:24:50:234,1592,2,0,1,121263,87548,129669,11,-687,736
05.10.2024 13:24:50:238,1593,2,0,1,121263,87558,129664,6,-687,735
05.10.2024 13:24:50:242,1594,2,0,1,121263,87569,129674,8,-685,736
05.10.2024 13:24:50:246,1595,2,0,1,121267,87572,129669,12,-683,736
05.10.2024 13:24:50:250,1596,2,0,1,121265,87576,129667,11,-681,735
05.10.2024 13:24:50:254,1597,2,0,1,121264,87579,129668,10,-683,732
05.10.2024 13:24:50:258,1598,2,0,1,121267,87580,129675,11,-680,739
05.10.2024 13:24:50:261,1599,2,0,1,121262,87583,129671,11,-680,739
05.10.2024 13:24:50:265,1600,2,0,1,121264,87587,129669,12,-682,737
05.10.2024 13:24:50:269,1601,2,0,1,121262,87592,129668,12,-684,741
05.10.2024 13:24:50:273,1602,2,0,1,121260,87589,129673,9,-685,739
05.10.2024 13:24:50:277,1603,2,0,1,121263,87589,129669,12,-678,739
05.10.2024 13:24:50:281,1604,2,0,1,121260,87601,129675,16,-675,737
05.10.2024 13:24:50:285,1605,2,0,1,121259,87603,129668,10,-681,740
05.10.2024 13:24:50:289,1606,2,0,1,121253,87603,129677,11,-680,736
05.10.2024 13:24:50:293,1607,2,0,1,121254,87607,129676,12,-677,732
05.10.2024 13:24:50:297,1608,2,0,1,121256,87614,129675,10,-677,736
05.10.2024 13:24:50:300,1609,2,0,1,121253,87618,129676,4,-682,737
05.10.2024 13:24:50:304,1610,2,0,1,121256,87626,129673,8,-685,741
05.10.2024 13:24:50:308,1611,2,0,1,121258,87621,129674,10,-679,732
05.10.2024 13:24:50:312,1612,2,0,1,121258,87629,129670,11,-685,737
05.10.2024 13:24:50:316,1613,2,0,1,121252,87631,129672,11,-680,733
05.10.2024 13:24:50:320,1614,2,0,1,121253,87642,129674,11,-679,733
05.10.2024 13:24:50:324,1615,2,0,1,121256,87642,129675,11,-681,733
05.10.2024 13:24:50:328,1616,2,0,1,121252,87646,129675,6,-681,735
05.10.2024 13:24:50:332,1617,2,0,1,121253,87657,129683,7,-680,733
05.10.2024 13:24:50:336,1618,2,0,1,121253,87654,129676,12,-686,741
05.10.2024 13:24:50:339,1619,2,0,1,121254,87663,129679,8,-684,738
05.10.2024 13:24:50:343,1620,2,0,1,121256,87660,129679,8,-683,735
05.10.2024 13:24:50:347,1621,2,0,1,121253,87679,129683,7,-680,735
05.10.2024 13:24:50:351,1622,2,0,1,121257,87668,129679,10,-682,735
05.10.2024 13:24:50:355,1623,2,0,1,121255,87679,129684,5,-680,736
05.10.2024 13:24:50:359,1624,2,0,1,121254,87675,129690,5,-680,736
05.10.2024 13:24:50:363,1625,2,0,1,121256,87691,129683,10,-684,738
05.10.2024 13:24:50:367,1626,2,0,1,121256,87697,129687,8,-683,736
05.10.2024 13:24:50:371,1627,2,0,1,121257,87696,129686,8,-684,741
05.10.2024 13:24:50:375,1628,2,0,1,121253,87704,129684,9,-685,743
05.10.2024 13:24:50:378,1629,2,0,1,121256,87702,129687,12,-681,737
05.10.2024 13:24:50:382,1630,2,0,1,121253,87700,129690,11,-683,737
05.10.2024 13:24:50:386,1631,2,0,1,121255,87714,129690,17,-678,738
05.10.2024 13:24:50:390,1632,2,0,1,121251,87721,129687,11,-674,737
05.10.2024 13:24:50:394,1633,2,0,1,121254,87719,129687,11,-676,739
05.10.2024 13:24:50:398,1634,2,0,1,121254,87721,129692,9,-675,741
05.10.2024 13:24:50:402,1635,2,0,1,121250,87723,129686,10,-680,739
05.10.2024 13:24:50:406,1636,2,0,1,121250,87738,129684,14,-679,737
05.10.2024 13:24:50:410,1637,2,0,1,121253,87730,129687,13,-680,736
05.10.2024 13:24:50:414,1638,2,0,1,121253,87736,129679,13,-676,736
05.10.2024 13:24:50:417,1639,2,0,1,121251,87728,129677,14,-678,734
05.10.2024 13:24:50:421,1640,2,0,1,121251,87731,129676,15,-677,731
05.10.2024 13:24:50:425,1641,2,0,1,121244,87731,129666,12,-680,733
05.10.2024 13:24:50:429,1642,2,0,1,121246,87729,129660,10,-682,734
05.10.2024 13:24:50:433,1643,2,0,1,121246,87726,129659,8,-684,735
05.10.2024 13:24:50:437,1644,2,0,1,121240,87725,129650,7,-682,733
05.10.2024 13:24:50:441,1645,2,0,1,121242,87717,129650,11,-686,732
05.10.2024 13:24:50:445,1646,2,0,1,121241,87705,129634,7,-681,730
05.10.2024 13:24:50:449,1647,2,0,1,121236,87698,129628,2,-684,731
05.10.2024 13:24:50:453,1648,2,0,1,121238,87690,129631,5,-682,736
05.10.2024 13:24:50:456,1649,2,0,1,121235,87666,129622,5,-682,736
05.10.2024 13:24:50:460,1650,2,0,1,121231,87653,129614,7,-686,732
05.10.2024 13:24:50:464,1651,2,0,1,121232,87647,129603,10,-690,742
05.10.2024 13:24:50:468,1652,2,0,1,121226,87636,129602,5,-691,732
05.10.2024 13:24:50:472,1653,2,0,1,121223,87624,129592,4,-686,735
05.10.2024 13:24:50:476,1654,2,0,1,121223,87604,129592,4,-688,739
05.10.2024 13:24:50:480,1655,2,0,1,121223,87594,129589,7,-685,734
05.10.2024 13:24:50:484,1656,2,0,1,121219,87570,129582,4,-685,736
05.10.2024 13:24:50:488,1657,2,0,1,121214,87569,129580,7,-679,732
05.10.2024 13:24:50:492,1658,2,0,1,121219,87556,129574,9,-683,735
05.10.2024 13:24:50:495,1659,2,0,1,121213,87543,129571,10,-677,737
05.10.2024 13:24:50:499,1660,2,0,1,121213,87531,129566,9,-686,736
05.10.2024 13:24:50:503,1661,2,0,1,121207,87519,129565,7,-684,736
05.10.2024 13:24:50:507,1662,2,0,1,121206,87504,129555,6,-685,736
05.10.2024 13:24:50:511,1663,2,0,1,121203,87500,129560,15,-685,730
05.10.2024 13:24:50:515,1664,2,0,1,121203,87489,129558,11,-682,734
05.10.2024 13:24:50:519,1665,2,0,1,121197,87480,129556,11,-678,735
05.10.2024 13:24:50:523,1666,2,0,1,121199,87467,129554,10,-679,734
05.10.2024 13:24:50:527,1667,2,0,1,121199,87463,129550,11,-680,731
05.10.2024 13:24:50:531,1668,2,0,1,121192,87449,129548,8,-682,739
05.10.2024 13:24:50:534,1669,2,0,1,121194,87447,129549,9,-682,735
05.10.2024 13:24:50:538,1670,2,0,1,121198,87434,129540,16,-683,737
05.10.2024 13:24:50:542,1671,2,0,1,121191,87439,129547,10,-680,737
05.10.2024 13:24:50:546,1672,2,0,1,121194,87429,129542,11,-679,736
05.10.2024 13:24:50:550,1673,2,0,1,121186,87428,129544,12,-676,742
05.10.2024 13:24:50:554,1674,2,0,1,121182,87416,129551,12,-676,742
05.10.2024 13:24:50:558,1675,2,0,1,121190,87412,129544,10,-679,738
05.10.2024 13:24:50:562,1676,2,0,1,121189,87413,129546,9,-677,736
05.10.2024 13:24:50:566,1677,2,0,1,121185,87410,129545,8,-678,741
05.10.2024 13:24:50:570,1678,2,0,1,121183,87403,129550,12,-681,743
05.10.2024 13:24:50:573,1679,2,0,1,121189,87410,129543,12,-685,738
05.10.2024 13:24:50:577,1680,2,0,1,121183,87398,129536,13,-685,737
05.10.2024 13:24:50:581,1681,2,0,1,121181,87393,129537,11,-680,741
05.10.2024 13:24:50:585,1682,2,0,1,121183,87392,129531,14,-677,732
05.10.2024 13:24:50:589,1683,2,0,1,121183,87399,129532,10,-676,736
05.10.2024 13:24:50:593,1684,2,0,1,121178,87396,129528,8,-683,742
05.10.2024 13:24:50:597,1685,2,0,1,121175,87385,129539,6,-680,734
05.10.2024 13:24:50:601,1686,2,0,1,121180,87382,129535,5,-681,732
05.10.2024 13:24:50:605,1687,2,0,1,121177,87391,129539,10,-681,737
05.10.2024 13:24:50:609,1688,2,0,1,121177,87385,129536,5,-687,732
05.10.2024 13:24:50:612,1689,2,0,1,121174,87384,129535,8,-681,735
05.10.2024 13:24:50:616,1690,2,0,1,121174,87373,129537,10,-683,732
05.10.2024 13:24:50:620,1691,2,0,1,121171,87381,129534,6,-688,734
05.10.2024 13:24:50:624,1692,2,0,1,121174,87382,129532,10,-683,732
05.10.2024 13:24:50:628,1693,2,0,1,121175,87376,129534,10,-687,733
05.10.2024 13:24:50:632,1694,2,0,1,121176,87378,129540,11,-688,743
05.10.2024 13:24:50:636,1695,2,0,1,121173,87385,129539,7,-690,737
05.10.2024 13:24:50:640,1696,2,0,1,121175,87378,129538,10,-689,738
05.10.2024 13:24:50:644,1697,2,0,1,121173,87374,129538,5,-689,738
05.10.2024 13:24:50:648,1698,2,0,1,121170,87373,129543,9,-683,735
05.10.2024 13:24:50:651,1699,2,0,1,121170,87372,129540,9,-683,735
05.10.2024 13:24:50:655,1700,2,0,1,121170,87376,129546,8,-678,739
05.10.2024 13:24:50:659,1701,2,0,1,121171,87387,129536,9,-677,739
05.10.2024 13:24:50:663,1702,2,0,1,121171,87388,129540,5,-680,737
05.10.2024 13:24:50:667,1703,2,0,1,121169,87390,129544,8,-677,736
05.10.2024 13:24:50:671,1704,2,0,1,121168,87387,129546,7,-678,737
05.10.2024 13:24:50:675,1705,2,0,1,121166,87384,129543,10,-683,735
05.10.2024 13:24:50:679,1706,2,0,1,121166,87382,129547,5,-679,738
05.10.2024 13:24:50:683,1707,2,0,1,121171,87391,129544,16,-675,739
05.10.2024 13:24:50:687,1708,2,0,1,121166,87392,129543,11,-681,735
05.10.2024 13:24:50:690,1709,2,0,1,121162,87396,129541,11,-679,733
05.10.2024 13:24:50:694,1710,2,0,1,121165,87396,129544,12,-679,737
05.10.2024 13:24:50:698,1711,2,0,1,121167,87401,129542,13,-679,736
05.10.2024 13:24:50:702,1712,2,0,1,121164,87391,129537,10,-689,735
05.10.2024 13:24:50:706,1713,2,0,1,121167,87394,129542,16,-692,736
05.10.2024 13:24:50:710,1714,2,0,1,121167,87401,129541,9,-685,732
05.10.2024 13:24:50:714,1715,2,0,1,121162,87399,129531,12,-685,736
05.10.2024 13:24:50:718,1716,2,0,1,121166,87401,129535,7,-685,733
05.10.2024 13:24:50:722,1717,2,0,1,121164,87406,129533,12,-686,732
05.10.2024 13:24:50:726,1718,2,0,1,121163,87402,129534,12,-688,738
05.10.2024 13:24:50:729,1719,2,0,1,121165,87408,129533,8,-684,737
05.10.2024 13:24:50:733,1720,2,0,1,121161,87404,129541,12,-748,739
05.10.2024 13:24:50:737,1721,2,0,1,121162,87408,129532,10,-687,741
05.10.2024 13:24:50:741,1722,2,0,1,121162,87410,129531,9,-689,741
05.10.2024 13:24:50:745,1723,2,0,1,121158,87409,129524,9,-683,734
05.10.2024 13:24:50:749,1724,2,0,1,121160,87419,129532,9,-683,734
05.10.2024 13:24:50:753,1725,2,0,1,121161,87400,129524,11,-681,734
05.10.2024 13:24:50:757,1726,2,0,1,121153,87399,129526,10,-680,739
05.10.2024 13:24:50:761,1727,2,0,1,121150,87407,129519,8,-677,739
05.10.2024 13:24:50:765,1728,2,0,1,121151,87408,129522,5,-683,737
05.10.2024 13:24:50:768,1729,2,0,1,121153,87407,129522,5,-684,738
05.10.2024 13:24:50:772,1730,2,0,1,121155,87397,129517,6,-684,739
05.10.2024 13:24:50:776,1731,2,0,1,121146,87403,129518,9,-683,737
05.10.2024 13:24:50:780,1732,2,0,1,121146,87398,129513,10,-680,732
05.10.2024 13:24:50:784,1733,2,0,1,121141,87398,129517,9,-676,734
05.10.2024 13:24:50:788,1734,2,0,1,121145,87406,129516,9,-677,737
05.10.2024 13:24:50:792,1735,2,0,1,121148,87395,129511,11,-676,738
05.10.2024 13:24:50:796,1736,2,0,1,121138,87396,129511,5,-680,737
05.10.2024 13:24:50:800,1737,2,0,1,121140,87393,129511,8,-679,733
05.10.2024 13:24:50:803,1738,2,0,1,121146,87398,129513,9,-682,735
05.10.2024 13:24:50:807,1739,2,0,1,121142,87403,129511,9,-681,741
05.10.2024 13:24:50:811,1740,2,0,1,121141,87405,129512,8,-685,738
05.10.2024 13:24:50:815,1741,2,0,1,121145,87402,129512,8,-684,737
05.10.2024 13:24:50:819,1742,2,0,1,121138,87410,129515,12,-680,736
05.10.2024 13:24:50:823,1743,2,0,1,121146,87404,129517,10,-677,739
05.10.2024 13:24:50:827,1744,2,0,1,121142,87402,129512,15,-682,736
05.10.2024 13:24:50:831,1745,2,0,1,121136,87406,129513,5,-691,735
05.10.2024 13:24:50:835,1746,2,0,1,121143,87410,129509,12,-686,734
05.10.2024 13:24:50:839,1747,2,0,1,121139,87407,129513,7,-689,736
05.10.2024 13:24:50:842,1748,2,0,1,121137,87412,129517,6,-686,741
05.10.2024 13:24:50:846,1749,2,0,1,121145,87406,129513,6,-686,741
05.10.2024 13:24:50:850,1750,2,0,1,121138,87419,129511,10,-682,732
05.10.2024 13:24:50:854,1751,2,0,1,121139,87416,129521,11,-680,732
05.10.2024 13:24:50:858,1752,2,0,1,121143,87421,129513,8,-681,732
05.10.2024 13:24:50:862,1753,2,0,1,121135,87420,129516,12,-680,733
05.10.2024 13:24:50:866,1754,2,0,1,121143,87417,129512,7,-682,735
05.10.2024 13:24:50:870,1755,2,0,1,121137,87423,129518,10,-688,734
05.10.2024 13:24:50:874,1756,2,0,1,121139,87433,129519,8,-686,739
05.10.2024 13:24:50:878,1757,2,0,1,121134,87428,129523,11,-686,737
05.10.2024 13:24:50:881,1758,2,0,1,121135,87430,129518,11,-686,735
05.10.2024 13:24:50:885,1759,2,0,1,121134,87442,129518,12,-680,735
05.10.2024 13:24:50:889,1760,2,0,1,121134,87437,129519,11,-681,733
05.10.2024 13:24:50:893,1761,2,0,1,121131,87438,129512,11,-678,734
05.10.2024 13:24:50:897,1762,2,0,1,121129,87434,129520,7,-681,738
05.10.2024 13:24:50:901,1763,2,0,1,121134,87445,129524,14,-680,732
05.10.2024 13:24:50:905,1764,2,0,1,121133,87439,129519,12,-678,736
05.10.2024 13:24:50:909,1765,2,0,1,121130,87464,129517,15,-681,739
05.10.2024 13:24:50:913,1766,2,0,1,121130,87461,129519,10,-678,734
05.10.2024 13:24:50:917,1767,2,0,1,121131,87458,129520,10,-678,734
05.10.2024 13:24:50:920,1768,2,0,1,121126,87454,129517,12,-675,735
05.10.2024 13:24:50:924,1769,2,0,1,121129,87459,129513,9,-678,735
05.10.2024 13:24:50:928,1770,2,0,1,121125,87475,129520,13,-681,734
05.10.2024 13:24:50:932,1771,2,0,1,121126,87474,129520,9,-677,732
05.10.2024 13:24:50:936,1772,2,0,1,121127,87474,129522,9,-682,738
05.10.2024 13:24:50:940,1773,2,0,1,121133,87488,129523,10,-686,739
05.10.2024 13:24:50:944,1774,2,0,1,121126,87480,129523,10,-686,739
05.10.2024 13:24:50:948,1775,2,0,1,121118,87491,129518,14,-683,736
05.10.2024 13:24:50:952,1776,2,0,1,121128,87495,129521,14,-689,738
05.10.2024 13:24:50:956,1777,2,0,1,121122,87494,129515,8,-682,741
05.10.2024 13:24:50:959,1778,2,0,1,121125,87498,129519,7,-684,737
05.10.2024 13:24:50:963,1779,2,0,1,121129,87513,129519,15,-682,735
05.10.2024 13:24:50:967,1780,2,0,1,121120,87512,129522,4,-687,732
05.10.2024 13:24:50:971,1781,2,0,1,121127,87530,129531,9,-689,737
05.10.2024 13:24:50:975,1782,2,0,1,121123,87517,129524,8,-688,736
05.10.2024 13:24:50:979,1783,2,0,1,121128,87528,129519,11,-686,740
05.10.2024 13:24:50:983,1784,2,0,1,121125,87524,129524,17,-685,732
05.10.2024 13:24:50:987,1785,2,0,1,121123,87537,129520,8,-681,733
05.10.2024 13:24:50:991,1786,2,0,1,121119,87539,129525,11,-682,736
05.10.2024 13:24:50:995,1787,2,0,1,121121,87542,129522,8,-678,737
05.10.2024 13:24:50:998,1788,2,0,1,121123,87556,129529,12,-683,735
05.10.2024 13:24:51:2,1789,2,0,1,121120,87544,129526,9,-683,736
05.10.2024 13:24:51:6,1790,2,0,1,121119,87559,129529,7,-689,735
05.10.2024 13:24:51:10,1791,2,0,1,121119,87559,129529,7,-681,741
05.10.2024 13:24:51:14,1792,2,0,1,121119,87557,129521,7,-681,736
05.10.2024 13:24:51:18,1793,2,0,1,121113,87564,129523,7,-680,739
05.10.2024 13:24:51:22,1794,2,0,1,121117,87570,129523,10,-682,738
05.10.2024 13:24:51:26,1795,2,0,1,121114,87573,129525,8,-675,740
05.10.2024 13:24:51:30,1796,2,0,1,121110,87583,129527,9,-676,735
05.10.2024 13:24:51:34,1797,2,0,1,121112,87578,129523,8,-682,741
05.10.2024 13:24:51:37,1798,2,0,1,121112,87580,129522,14,-685,736
05.10.2024 13:24:51:41,1799,2,0,1,121115,87597,129530,14,-685,736
05.10.2024 13:24:51:45,1800,2,0,1,121111,87593,129529,10,-684,739
05.10.2024 13:24:51:49,1801,2,0,1,121112,87597,129524,9,-679,740
05.10.2024 13:24:51:53,1802,2,0,1,121104,87607,129522,7,-679,736
05.10.2024 13:24:51:57,1803,2,0,1,121112,87615,129530,11,-678,741
05.10.2024 13:24:51:61,1804,2,0,1,121112,87613,129526,13,-681,734
05.10.2024 13:24:51:65,1805,2,0,1,121109,87623,129521,8,-676,737
05.10.2024 13:24:51:69,1806,2,0,1,121108,87618,129528,12,-681,733
05.10.2024 13:24:51:73,1807,2,0,1,121109,87630,129531,12,-686,733
05.10.2024 13:24:51:76,1808,2,0,1,121108,87633,129525,12,-681,737
05.10.2024 13:24:51:80,1809,2,0,1,121110,87634,129534,10,-683,735
05.10.2024 13:24:51:84,1810,2,0,1,121107,87643,129535,8,-681,738
05.10.2024 13:24:51:88,1811,2,0,1,121112,87647,129536,6,-680,737
05.10.2024 13:24:51:92,1812,2,0,1,121107,87657,129536,7,-681,737
05.10.2024 13:24:51:96,1813,2,0,1,121110,87659,129536,8,-683,735
05.10.2024 13:24:51:100,1814,2,0,1,121111,87656,129533,10,-684,736
05.10.2024 13:24:51:104,1815,2,0,1,121108,87659,129532,9,-687,737
05.10.2024 13:24:51:108,1816,2,0,1,121106,87666,129536,4,-687,740
05.10.2024 13:24:51:112,1817,2,0,1,121108,87661,129537,9,-686,735
05.10.2024 13:24:51:115,1818,2,0,1,121114,87665,129538,9,-684,736
05.10.2024 13:24:51:119,1819,2,0,1,121107,87673,129541,7,-680,738
