Timestamp[Day.Month.Year Hour:Minute:Second:Milisecond],sampleNum,tagLEDC1_PD1,tagLEDC2_PD1,tagLEDC3_PD1,LED1_PPG1,LED2_PPG1,LED3_PPG1,ACC_X[mg],ACC_Y[mg],ACC_Z[mg]
13.10.2024 12:44:26:170,1,0,1,2,28712,59017,5068,18,20,995
13.10.2024 12:44:26:173,2,0,1,2,28712,59015,5067,11,23,993
13.10.2024 12:44:26:176,3,0,1,2,28709,59016,5068,15,24,995
13.10.2024 12:44:26:179,4,0,1,2,28711,59010,5066,18,27,991
13.10.2024 12:44:26:183,5,0,1,2,28707,59006,5068,16,24,998
13.10.2024 12:44:26:186,6,0,1,2,28707,59002,5066,16,24,994
13.10.2024 12:44:26:189,7,0,1,2,28707,58999,5067,16,26,995
13.10.2024 12:44:26:192,8,0,1,2,28708,58998,5069,17,22,997
13.10.2024 12:44:26:196,9,0,1,2,28706,58997,5066,16,29,992
13.10.2024 12:44:26:199,10,0,1,2,28705,58990,5067,15,25,998
13.10.2024 12:44:26:202,11,0,1,2,28713,58992,5069,15,27,997
13.10.2024 12:44:26:205,12,0,1,2,28709,58992,5069,17,25,997
13.10.2024 12:44:26:209,13,0,1,2,28712,58988,5067,20,23,995
13.10.2024 12:44:26:212,14,0,1,2,28708,58986,5068,15,27,997
13.10.2024 12:44:26:215,15,0,1,2,28708,58988,5065,14,24,994
13.10.2024 12:44:26:218,16,0,1,2,28706,58984,5068,18,25,996
13.10.2024 12:44:26:222,17,0,1,2,28704,58983,5067,15,23,996
13.10.2024 12:44:26:225,18,0,1,2,28704,58978,5069,15,23,996
13.10.2024 12:44:26:228,19,0,1,2,28707,58980,5069,17,22,994
13.10.2024 12:44:26:231,20,0,1,2,28701,58976,5068,15,23,997
13.10.2024 12:44:26:235,21,0,1,2,28702,58974,5069,20,23,993
13.10.2024 12:44:26:238,22,0,1,2,28705,58969,5069,20,23,995
13.10.2024 12:44:26:241,23,0,1,2,28705,58972,5068,19,23,995
13.10.2024 12:44:26:244,24,0,1,2,28702,58966,5067,15,21,996
13.10.2024 12:44:26:248,25,0,1,2,28702,58968,5070,15,23,996
13.10.2024 12:44:26:251,26,0,1,2,28704,58961,5065,17,25,1000
13.10.2024 12:44:26:254,27,0,1,2,28704,58966,5067,15,22,991
13.10.2024 12:44:26:257,28,0,1,2,28699,58962,5067,20,23,997
13.10.2024 12:44:26:261,29,0,1,2,28702,58963,5066,18,27,995
13.10.2024 12:44:26:264,30,0,1,2,28704,58963,5066,23,23,995
13.10.2024 12:44:26:267,31,0,1,2,28703,58962,5068,19,20,996
13.10.2024 12:44:26:270,32,0,1,2,28700,58962,5068,22,24,992
13.10.2024 12:44:26:274,33,0,1,2,28699,58964,5067,15,25,997
13.10.2024 12:44:26:277,34,0,1,2,28697,58959,5066,17,25,992
13.10.2024 12:44:26:280,35,0,1,2,28702,58956,5067,17,27,995
13.10.2024 12:44:26:283,36,0,1,2,28707,58954,5067,17,24,992
13.10.2024 12:44:26:287,37,0,1,2,28698,58952,5066,18,22,999
13.10.2024 12:44:26:290,38,0,1,2,28700,58952,5065,18,25,997
13.10.2024 12:44:26:293,39,0,1,2,28698,58945,5066,16,21,999
13.10.2024 12:44:26:296,40,0,1,2,28696,58947,5068,21,21,997
13.10.2024 12:44:26:300,41,0,1,2,28695,58946,5066,15,27,997
13.10.2024 12:44:26:303,42,0,1,2,28697,58942,5067,17,20,996
13.10.2024 12:44:26:306,43,0,1,2,28697,58949,5070,18,19,994
13.10.2024 12:44:26:309,44,0,1,2,28695,58944,5067,17,24,994
13.10.2024 12:44:26:312,45,0,1,2,28700,58950,5067,13,25,993
13.10.2024 12:44:26:316,46,0,1,2,28697,58948,5068,20,27,996
13.10.2024 12:44:26:319,47,0,1,2,28698,58947,5068,17,18,994
13.10.2024 12:44:26:322,48,0,1,2,28697,58946,5065,18,26,997
13.10.2024 12:44:26:325,49,0,1,2,28701,58940,5068,14,24,995
13.10.2024 12:44:26:329,50,0,1,2,28699,58944,5066,17,25,991
13.10.2024 12:44:26:332,51,0,1,2,28702,58942,5068,15,22,996
13.10.2024 12:44:26:335,52,0,1,2,28694,58940,5068,18,23,996
13.10.2024 12:44:26:338,53,0,1,2,28696,58942,5067,17,22,993
13.10.2024 12:44:26:342,54,0,1,2,28690,58939,5067,15,22,998
13.10.2024 12:44:26:345,55,0,1,2,28697,58934,5067,18,22,996
13.10.2024 12:44:26:348,56,0,1,2,28696,58933,5065,19,26,997
13.10.2024 12:44:26:351,57,0,1,2,28695,58934,5067,19,23,998
13.10.2024 12:44:26:355,58,0,1,2,28698,58930,5066,20,23,1003
13.10.2024 12:44:26:358,59,0,1,2,28692,58939,5067,23,26,994
13.10.2024 12:44:26:361,60,0,1,2,28695,58941,5069,18,23,989
13.10.2024 12:44:26:364,61,0,1,2,28690,58927,5068,16,24,992
13.10.2024 12:44:26:368,62,0,1,2,28695,58942,5068,19,20,989
13.10.2024 12:44:26:371,63,0,1,2,28692,58928,5067,22,20,998
13.10.2024 12:44:26:374,64,0,1,2,28698,58940,5065,22,20,998
13.10.2024 12:44:26:377,65,0,1,2,28692,58925,5067,18,19,995
13.10.2024 12:44:26:381,66,0,1,2,28689,58928,5068,18,24,998
13.10.2024 12:44:26:384,67,0,1,2,28695,58929,5064,15,24,997
13.10.2024 12:44:26:387,68,0,1,2,28695,58928,5067,23,20,995
13.10.2024 12:44:26:390,69,0,1,2,28694,58930,5068,26,27,997
13.10.2024 12:44:26:394,70,0,1,2,28695,58928,5068,17,20,993
13.10.2024 12:44:26:397,71,0,1,2,28686,58926,5067,22,21,992
13.10.2024 12:44:26:400,72,0,1,2,28695,58923,5065,23,25,995
13.10.2024 12:44:26:403,73,0,1,2,28693,58930,5067,19,22,993
13.10.2024 12:44:26:407,74,0,1,2,28691,58928,5068,18,23,996
13.10.2024 12:44:26:410,75,0,1,2,28692,58927,5067,22,22,993
13.10.2024 12:44:26:413,76,0,1,2,28699,58925,5066,20,27,996
13.10.2024 12:44:26:416,77,0,1,2,28695,58923,5065,19,22,996
13.10.2024 12:44:26:420,78,0,1,2,28691,58927,5067,16,19,993
13.10.2024 12:44:26:423,79,0,1,2,28692,58923,5068,18,25,995
13.10.2024 12:44:26:426,80,0,1,2,28691,58923,5068,17,23,994
13.10.2024 12:44:26:429,81,0,1,2,28694,58922,5066,17,22,999
13.10.2024 12:44:26:433,82,0,1,2,28686,58917,5066,18,20,1001
13.10.2024 12:44:26:436,83,0,1,2,28691,58917,5066,15,28,998
13.10.2024 12:44:26:439,84,0,1,2,28692,58916,5067,15,22,994
13.10.2024 12:44:26:442,85,0,1,2,28695,58922,5067,17,23,992
13.10.2024 12:44:26:445,86,0,1,2,28689,58906,5065,20,19,1004
13.10.2024 12:44:26:449,87,0,1,2,28692,58926,5068,14,20,987
13.10.2024 12:44:26:452,88,0,1,2,28693,58916,5063,18,23,994
13.10.2024 12:44:26:455,89,0,1,2,28687,58910,5068,14,21,1001
13.10.2024 12:44:26:458,90,0,1,2,28692,58918,5065,14,17,996
13.10.2024 12:44:26:462,91,0,1,2,28687,58914,5066,14,15,999
13.10.2024 12:44:26:465,92,0,1,2,28697,58917,5067,14,19,994
13.10.2024 12:44:26:468,93,0,1,2,28690,58918,5067,19,24,994
13.10.2024 12:44:26:471,94,0,1,2,28690,58917,5066,17,19,996
13.10.2024 12:44:26:475,95,0,1,2,28685,58916,5067,14,24,995
13.10.2024 12:44:26:478,96,0,1,2,28690,58913,5068,17,24,995
13.10.2024 12:44:26:481,97,0,1,2,28685,58912,5067,11,19,1000
13.10.2024 12:44:26:484,98,0,1,2,28688,58912,5066,17,25,998
13.10.2024 12:44:26:488,99,0,1,2,28689,58912,5068,19,23,999
13.10.2024 12:44:26:491,100,0,1,2,28688,58908,5066,21,23,999
13.10.2024 12:44:26:494,101,0,1,2,28687,58908,5066,18,23,999
13.10.2024 12:44:26:497,102,0,1,2,28686,58908,5068,20,25,1000
13.10.2024 12:44:26:501,103,0,1,2,28684,58913,5066,20,25,989
13.10.2024 12:44:26:504,104,0,1,2,28687,58911,5066,19,24,993
13.10.2024 12:44:26:507,105,0,1,2,28693,58912,5068,19,24,993
13.10.2024 12:44:26:510,106,0,1,2,28689,58910,5066,19,23,1000
13.10.2024 12:44:26:514,107,0,1,2,28697,58913,5065,18,26,991
13.10.2024 12:44:26:517,108,0,1,2,28685,58916,5068,25,27,994
13.10.2024 12:44:26:520,109,0,1,2,28694,58912,5067,19,28,992
13.10.2024 12:44:26:523,110,0,1,2,28689,58911,5066,19,28,992
13.10.2024 12:44:26:527,111,0,1,2,28689,58911,5067,22,21,994
13.10.2024 12:44:26:530,112,0,1,2,28686,58911,5066,18,27,994
13.10.2024 12:44:26:533,113,0,1,2,28692,58912,5068,21,24,997
13.10.2024 12:44:26:536,114,0,1,2,28688,58910,5067,21,25,997
13.10.2024 12:44:26:540,115,0,1,2,28688,58909,5067,22,27,995
13.10.2024 12:44:26:543,116,0,1,2,28690,58906,5065,22,19,994
13.10.2024 12:44:26:546,117,0,1,2,28683,58905,5067,18,22,999
13.10.2024 12:44:26:549,118,0,1,2,28687,58908,5066,19,22,993
13.10.2024 12:44:26:553,119,0,1,2,28693,58903,5067,18,25,998
13.10.2024 12:44:26:556,120,0,1,2,28685,58902,5066,20,22,992
13.10.2024 12:44:26:559,121,0,1,2,28684,58904,5066,15,24,997
13.10.2024 12:44:26:562,122,0,1,2,28679,58901,5065,17,18,996
13.10.2024 12:44:26:566,123,0,1,2,28686,58903,5068,15,23,997
13.10.2024 12:44:26:569,124,0,1,2,28680,58905,5066,15,22,997
13.10.2024 12:44:26:572,125,0,1,2,28690,58906,5069,19,21,996
13.10.2024 12:44:26:575,126,0,1,2,28685,58908,5070,17,17,996
13.10.2024 12:44:26:578,127,0,1,2,28688,58908,5068,12,18,992
13.10.2024 12:44:26:582,128,0,1,2,28685,58906,5066,18,23,989
13.10.2024 12:44:26:585,129,0,1,2,28684,58907,5067,16,17,992
13.10.2024 12:44:26:588,130,0,1,2,28680,58899,5067,19,24,994
13.10.2024 12:44:26:591,131,0,1,2,28689,58905,5067,19,24,994
13.10.2024 12:44:26:595,132,0,1,2,28684,58900,5067,14,25,999
13.10.2024 12:44:26:598,133,0,1,2,28685,58898,5067,17,24,995
13.10.2024 12:44:26:601,134,0,1,2,28682,58896,5066,15,25,994
13.10.2024 12:44:26:604,135,0,1,2,28689,58899,5068,21,24,995
13.10.2024 12:44:26:608,136,0,1,2,28687,58901,5067,19,17,995
13.10.2024 12:44:26:611,137,0,1,2,28683,58901,5066,17,25,996
13.10.2024 12:44:26:614,138,0,1,2,28680,58902,5063,17,23,998
13.10.2024 12:44:26:617,139,0,1,2,28683,58901,5069,18,23,993
13.10.2024 12:44:26:621,140,0,1,2,28685,58901,5067,17,19,994
13.10.2024 12:44:26:624,141,0,1,2,28687,58901,5067,19,28,995
13.10.2024 12:44:26:627,142,0,1,2,28689,58903,5068,18,23,998
13.10.2024 12:44:26:630,143,0,1,2,28692,58903,5070,19,25,995
13.10.2024 12:44:26:634,144,0,1,2,28684,58901,5068,17,26,999
13.10.2024 12:44:26:637,145,0,1,2,28682,58895,5068,18,26,999
13.10.2024 12:44:26:640,146,0,1,2,28685,58900,5066,18,26,999
13.10.2024 12:44:26:643,147,0,1,2,28684,58893,5066,19,28,999
13.10.2024 12:44:26:647,148,0,1,2,28684,58895,5068,18,25,998
13.10.2024 12:44:26:650,149,0,1,2,28686,58895,5068,20,24,999
13.10.2024 12:44:26:653,150,0,1,2,28688,58898,5066,20,27,999
13.10.2024 12:44:26:656,151,0,1,2,28681,58899,5066,20,27,999
13.10.2024 12:44:26:660,152,0,1,2,28684,58897,5068,17,22,991
13.10.2024 12:44:26:663,153,0,1,2,28681,58894,5066,20,25,999
13.10.2024 12:44:26:666,154,0,1,2,28685,58894,5067,18,25,996
13.10.2024 12:44:26:669,155,0,1,2,28681,58889,5067,18,21,994
13.10.2024 12:44:26:673,156,0,1,2,28682,58893,5067,13,26,994
13.10.2024 12:44:26:676,157,0,1,2,28684,58892,5067,17,22,990
13.10.2024 12:44:26:679,158,0,1,2,28682,58894,5067,19,27,992
13.10.2024 12:44:26:682,159,0,1,2,28687,58892,5067,13,25,990
13.10.2024 12:44:26:686,160,0,1,2,28687,58894,5068,18,23,996
13.10.2024 12:44:26:689,161,0,1,2,28683,58895,5066,14,21,995
13.10.2024 12:44:26:692,162,0,1,2,28682,58893,5068,10,19,997
13.10.2024 12:44:26:695,163,0,1,2,28682,58893,5064,19,17,998
13.10.2024 12:44:26:699,164,0,1,2,28681,58893,5066,12,20,998
13.10.2024 12:44:26:702,165,0,1,2,28686,58886,5067,14,22,998
13.10.2024 12:44:26:705,166,0,1,2,28686,58889,5067,21,21,994
13.10.2024 12:44:26:708,167,0,1,2,28681,58891,5066,19,24,1000
13.10.2024 12:44:26:711,168,0,1,2,28683,58893,5066,16,18,994
13.10.2024 12:44:26:715,169,0,1,2,28679,58892,5067,15,19,999
13.10.2024 12:44:26:718,170,0,1,2,28682,58892,5065,14,21,997
13.10.2024 12:44:26:721,171,0,1,2,28682,58893,5068,16,20,991
13.10.2024 12:44:26:724,172,0,1,2,28688,58893,5068,15,20,994
13.10.2024 12:44:26:728,173,0,1,2,28681,58887,5067,21,22,998
13.10.2024 12:44:26:731,174,0,1,2,28680,58887,5067,19,20,996
13.10.2024 12:44:26:734,175,0,1,2,28681,58892,5068,19,23,997
13.10.2024 12:44:26:737,176,0,1,2,28682,58891,5067,19,23,997
13.10.2024 12:44:26:741,177,0,1,2,28682,58890,5067,15,26,993
13.10.2024 12:44:26:744,178,0,1,2,28678,58888,5067,19,28,1001
13.10.2024 12:44:26:747,179,0,1,2,28685,58894,5067,19,20,997
13.10.2024 12:44:26:750,180,0,1,2,28677,58886,5067,18,22,995
13.10.2024 12:44:26:754,181,0,1,2,28680,58891,5066,20,24,996
13.10.2024 12:44:26:757,182,0,1,2,28682,58891,5069,23,27,996
13.10.2024 12:44:26:760,183,0,1,2,28680,58887,5065,20,28,994
13.10.2024 12:44:26:763,184,0,1,2,28685,58890,5067,20,27,998
13.10.2024 12:44:26:767,185,0,1,2,28682,58887,5067,19,26,998
13.10.2024 12:44:26:770,186,0,1,2,28677,58889,5066,16,23,993
13.10.2024 12:44:26:773,187,0,1,2,28681,58887,5067,20,24,995
13.10.2024 12:44:26:776,188,0,1,2,28682,58886,5065,18,28,995
13.10.2024 12:44:26:780,189,0,1,2,28679,58886,5066,17,25,993
13.10.2024 12:44:26:783,190,0,1,2,28678,58887,5068,17,22,1000
13.10.2024 12:44:26:786,191,0,1,2,28684,58889,5069,17,22,1000
13.10.2024 12:44:26:789,192,0,1,2,28684,58886,5068,22,25,995
13.10.2024 12:44:26:793,193,0,1,2,28679,58888,5066,15,21,995
13.10.2024 12:44:26:796,194,0,1,2,28680,58887,5066,19,25,996
13.10.2024 12:44:26:799,195,0,1,2,28678,58881,5068,17,28,997
13.10.2024 12:44:26:802,196,0,1,2,28684,58891,5069,16,24,995
13.10.2024 12:44:26:806,197,0,1,2,28683,58879,5066,13,21,1001
13.10.2024 12:44:26:809,198,0,1,2,28679,58891,5066,16,22,986
13.10.2024 12:44:26:812,199,0,1,2,28680,58881,5065,18,21,999
13.10.2024 12:44:26:815,200,0,1,2,28678,58886,5067,20,21,990
13.10.2024 12:44:26:819,201,0,1,2,28682,58884,5067,16,24,994
13.10.2024 12:44:26:822,202,0,1,2,28677,58884,5064,16,20,996
13.10.2024 12:44:26:825,203,0,1,2,28678,58884,5067,21,18,996
13.10.2024 12:44:26:828,204,0,1,2,28678,58882,5066,16,21,994
13.10.2024 12:44:26:832,205,0,1,2,28677,58883,5067,16,16,998
13.10.2024 12:44:26:835,206,0,1,2,28679,58881,5068,16,16,998
13.10.2024 12:44:26:838,207,0,1,2,28682,58884,5067,17,21,997
13.10.2024 12:44:26:841,208,0,1,2,28675,58882,5067,18,20,995
13.10.2024 12:44:26:844,209,0,1,2,28680,58883,5067,18,19,992
13.10.2024 12:44:26:848,210,0,1,2,28679,58881,5067,19,19,995
13.10.2024 12:44:26:851,211,0,1,2,28681,58887,5069,17,23,990
13.10.2024 12:44:26:854,212,0,1,2,28680,58880,5066,14,18,994
13.10.2024 12:44:26:857,213,0,1,2,28665,58874,5067,15,19,1002
13.10.2024 12:44:26:861,214,0,1,2,28677,58893,5067,20,19,989
13.10.2024 12:44:26:864,215,0,1,2,28677,58869,5066,19,20,1004
13.10.2024 12:44:26:867,216,0,1,2,28676,58889,5067,15,20,993
13.10.2024 12:44:26:870,217,0,1,2,28678,58876,5066,18,25,1003
13.10.2024 12:44:26:874,218,0,1,2,28676,58883,5067,17,24,996
13.10.2024 12:44:26:877,219,0,1,2,28678,58885,5067,14,27,995
13.10.2024 12:44:26:880,220,0,1,2,28678,58878,5068,18,24,1000
13.10.2024 12:44:26:883,221,0,1,2,28681,58888,5068,18,24,1000
13.10.2024 12:44:26:887,222,0,1,2,28681,58882,5069,19,20,993
13.10.2024 12:44:26:890,223,0,1,2,28678,58889,5070,21,25,991
13.10.2024 12:44:26:893,224,0,1,2,28680,58885,5067,15,26,993
13.10.2024 12:44:26:896,225,0,1,2,28684,58881,5067,15,29,936
13.10.2024 12:44:26:900,226,0,1,2,28677,58886,5068,20,30,994
13.10.2024 12:44:26:903,227,0,1,2,28675,58866,5067,17,30,1003
13.10.2024 12:44:26:906,228,0,1,2,28669,58868,5065,14,24,1008
13.10.2024 12:44:26:909,229,0,1,2,28679,58879,5067,21,22,994
13.10.2024 12:44:26:913,230,0,1,2,28673,58875,5065,18,25,994
13.10.2024 12:44:26:916,231,0,1,2,28678,58880,5066,16,24,996
13.10.2024 12:44:26:919,232,0,1,2,28678,58880,5066,15,24,995
13.10.2024 12:44:26:922,233,0,1,2,28680,58880,5068,13,23,993
13.10.2024 12:44:26:926,234,0,1,2,28683,58899,5070,16,20,983
13.10.2024 12:44:26:929,235,0,1,2,28679,58870,5067,20,26,1009
13.10.2024 12:44:26:932,236,0,1,2,28679,58887,5068,20,26,1009
13.10.2024 12:44:26:935,237,0,1,2,28672,58855,5062,17,20,1005
13.10.2024 12:44:26:939,238,0,1,2,28660,58854,5067,19,22,998
13.10.2024 12:44:26:942,239,0,1,2,28677,58887,5068,16,24,983
13.10.2024 12:44:26:945,240,0,1,2,28683,58890,5067,16,20,983
13.10.2024 12:44:26:948,241,0,1,2,28686,58896,5067,15,19,982
13.10.2024 12:44:26:952,242,0,1,2,28680,58877,5066,16,19,999
13.10.2024 12:44:26:955,243,0,1,2,28677,58872,5067,15,17,1001
13.10.2024 12:44:26:958,244,0,1,2,28675,58861,5065,19,18,1001
13.10.2024 12:44:26:961,245,0,1,2,28672,58867,5066,16,14,996
13.10.2024 12:44:26:965,246,0,1,2,28671,58873,5066,15,21,1003
13.10.2024 12:44:26:968,247,0,1,2,28673,58885,5066,19,18,992
13.10.2024 12:44:26:971,248,0,1,2,28677,58888,5068,19,17,989
13.10.2024 12:44:26:974,249,0,1,2,28682,58884,5067,16,21,990
13.10.2024 12:44:26:977,250,0,1,2,28683,58879,5067,16,15,995
13.10.2024 12:44:26:981,251,0,1,2,28673,58879,5066,16,15,995
13.10.2024 12:44:26:984,252,0,1,2,28670,58871,5066,21,21,999
13.10.2024 12:44:26:987,253,0,1,2,28670,58876,5069,18,19,999
13.10.2024 12:44:26:990,254,0,1,2,28677,58879,5066,16,24,995
13.10.2024 12:44:26:994,255,0,1,2,28684,58878,5067,17,22,990
13.10.2024 12:44:26:997,256,0,1,2,28678,58881,5066,19,22,994
13.10.2024 12:44:27:0,257,0,1,2,28676,58880,5067,16,21,994
13.10.2024 12:44:27:3,258,0,1,2,28673,58875,5065,20,26,998
13.10.2024 12:44:27:7,259,0,1,2,28673,58873,5067,21,26,1003
13.10.2024 12:44:27:10,260,0,1,2,28671,58864,5064,17,22,1002
13.10.2024 12:44:27:13,261,0,1,2,28672,58861,5067,19,29,1002
13.10.2024 12:44:27:16,262,0,1,2,28669,58867,5066,15,24,996
13.10.2024 12:44:27:20,263,0,1,2,28676,58870,5067,15,26,1002
13.10.2024 12:44:27:23,264,0,1,2,28677,58884,5068,21,29,988
13.10.2024 12:44:27:26,265,0,1,2,28684,58884,5066,20,27,995
13.10.2024 12:44:27:29,266,0,1,2,28677,58879,5068,20,27,995
13.10.2024 12:44:27:33,267,0,1,2,28679,58874,5068,17,27,990
13.10.2024 12:44:27:36,268,0,1,2,28675,58870,5067,19,28,1001
13.10.2024 12:44:27:39,269,0,1,2,28672,58874,5067,17,27,999
13.10.2024 12:44:27:42,270,0,1,2,28672,58870,5067,17,31,1000
13.10.2024 12:44:27:46,271,0,1,2,28672,58873,5068,18,28,992
13.10.2024 12:44:27:49,272,0,1,2,28676,58871,5068,16,24,995
13.10.2024 12:44:27:52,273,0,1,2,28670,58867,5067,15,30,1003
13.10.2024 12:44:27:55,274,0,1,2,28676,58867,5067,12,29,1003
13.10.2024 12:44:27:59,275,0,1,2,28668,58862,5065,12,28,1002
13.10.2024 12:44:27:62,276,0,1,2,28669,58866,5066,15,25,1002
13.10.2024 12:44:27:65,277,0,1,2,28672,58866,5066,17,23,999
13.10.2024 12:44:27:68,278,0,1,2,28673,58871,5066,19,19,995
13.10.2024 12:44:27:72,279,0,1,2,28676,58876,5067,16,18,989
13.10.2024 12:44:27:75,280,0,1,2,28674,58888,5069,17,22,977
13.10.2024 12:44:27:78,281,0,1,2,28683,58888,5066,17,22,977
13.10.2024 12:44:27:81,282,0,1,2,28668,58870,5068,15,19,1001
13.10.2024 12:44:27:85,283,0,1,2,28673,58866,5063,16,14,1014
13.10.2024 12:44:27:88,284,0,1,2,28659,58842,5065,16,18,1010
13.10.2024 12:44:27:91,285,0,1,2,28662,58874,5065,16,15,998
13.10.2024 12:44:27:94,286,0,1,2,28675,58879,5068,18,17,988
13.10.2024 12:44:27:98,287,0,1,2,28676,58886,5069,17,19,985
13.10.2024 12:44:27:101,288,0,1,2,28679,58879,5067,16,17,992
13.10.2024 12:44:27:104,289,0,1,2,28676,58870,5066,16,17,992
13.10.2024 12:44:27:107,290,0,1,2,28668,58865,5068,20,21,1002
13.10.2024 12:44:27:110,291,0,1,2,28662,58859,5066,19,21,1003
13.10.2024 12:44:27:114,292,0,1,2,28663,58861,5068,19,16,1006
13.10.2024 12:44:27:117,293,0,1,2,28669,58869,5067,20,21,997
13.10.2024 12:44:27:120,294,0,1,2,28679,58871,5067,17,26,991
13.10.2024 12:44:27:123,295,0,1,2,28676,58878,5067,17,23,991
13.10.2024 12:44:27:127,296,0,1,2,28676,58872,5068,18,25,992
13.10.2024 12:44:27:130,297,0,1,2,28669,58871,5065,21,20,996
13.10.2024 12:44:27:133,298,0,1,2,28671,58869,5067,20,25,997
13.10.2024 12:44:27:136,299,0,1,2,28671,58873,5067,22,22,1000
13.10.2024 12:44:27:140,300,0,1,2,28674,58876,5066,19,27,991
13.10.2024 12:44:27:143,301,0,1,2,28678,58872,5067,21,27,991
13.10.2024 12:44:27:146,302,0,1,2,28677,58878,5070,15,28,987
13.10.2024 12:44:27:149,303,0,1,2,28676,58876,5067,17,22,994
13.10.2024 12:44:27:153,304,0,1,2,28678,58876,5067,18,27,995
13.10.2024 12:44:27:156,305,0,1,2,28669,58865,5066,17,29,1001
13.10.2024 12:44:27:159,306,0,1,2,28660,58852,5064,17,29,1005
13.10.2024 12:44:27:162,307,0,1,2,28673,58858,5065,18,25,998
13.10.2024 12:44:27:166,308,0,1,2,28668,58854,5066,16,28,1005
13.10.2024 12:44:27:169,309,0,1,2,28679,58877,5068,18,32,988
13.10.2024 12:44:27:172,310,0,1,2,28679,58869,5066,22,28,996
13.10.2024 12:44:27:175,311,0,1,2,28677,58877,5067,18,30,989
13.10.2024 12:44:27:179,312,0,1,2,28670,58862,5065,16,27,999
13.10.2024 12:44:27:182,313,0,1,2,28667,58867,5067,18,31,992
13.10.2024 12:44:27:185,314,0,1,2,28673,58873,5068,20,26,989
13.10.2024 12:44:27:188,315,0,1,2,28672,58870,5066,14,26,992
13.10.2024 12:44:27:192,316,0,1,2,28679,58874,5067,16,30,994
13.10.2024 12:44:27:195,317,0,1,2,28676,58871,5068,18,30,998
13.10.2024 12:44:27:198,318,0,1,2,28670,58864,5067,18,29,996
13.10.2024 12:44:27:201,319,0,1,2,28669,58857,5067,12,20,1004
13.10.2024 12:44:27:205,320,0,1,2,28666,58860,5065,13,20,997
13.10.2024 12:44:27:208,321,0,1,2,28674,58865,5067,16,20,997
13.10.2024 12:44:27:211,322,0,1,2,28670,58865,5064,15,20,996
13.10.2024 12:44:27:214,323,0,1,2,28676,58873,5066,14,19,991
13.10.2024 12:44:27:218,324,0,1,2,28669,58857,5065,21,21,1001
13.10.2024 12:44:27:221,325,0,1,2,28666,58862,5065,18,20,998
13.10.2024 12:44:27:224,326,0,1,2,28666,58863,5068,17,13,997
13.10.2024 12:44:27:227,327,0,1,2,28663,58864,5067,20,16,999
13.10.2024 12:44:27:231,328,0,1,2,28679,58871,5067,15,16,990
13.10.2024 12:44:27:234,329,0,1,2,28677,58874,5068,16,19,981
13.10.2024 12:44:27:237,330,0,1,2,28691,58900,5068,17,21,969
13.10.2024 12:44:27:240,331,0,1,2,28671,58860,5069,17,23,997
13.10.2024 12:44:27:243,332,0,1,2,28678,58876,5066,20,19,1002
13.10.2024 12:44:27:247,333,0,1,2,28649,58830,5063,20,11,1023
13.10.2024 12:44:27:250,334,0,1,2,28660,58854,5068,19,15,997
13.10.2024 12:44:27:253,335,0,1,2,28671,58872,5066,19,15,997
13.10.2024 12:44:27:256,336,0,1,2,28677,58883,5069,23,18,981
13.10.2024 12:44:27:260,337,0,1,2,28685,58882,5069,21,21,985
13.10.2024 12:44:27:263,338,0,1,2,28674,58865,5066,19,21,998
13.10.2024 12:44:27:266,339,0,1,2,28668,58856,5065,21,18,1001
13.10.2024 12:44:27:269,340,0,1,2,28662,58845,5063,23,22,1012
13.10.2024 12:44:27:273,341,0,1,2,28659,58852,5066,20,14,1004
13.10.2024 12:44:27:276,342,0,1,2,28666,58863,5067,21,16,995
13.10.2024 12:44:27:279,343,0,1,2,28674,58864,5067,21,23,993
13.10.2024 12:44:27:282,344,0,1,2,28682,58868,5067,13,24,993
13.10.2024 12:44:27:286,345,0,1,2,28677,58871,5066,15,26,993
13.10.2024 12:44:27:289,346,0,1,2,28678,58869,5067,19,27,993
13.10.2024 12:44:27:292,347,0,1,2,28675,58864,5065,13,26,993
13.10.2024 12:44:27:295,348,0,1,2,28667,58860,5066,16,25,996
13.10.2024 12:44:27:299,349,0,1,2,28667,58860,5067,18,25,994
13.10.2024 12:44:27:302,350,0,1,2,28673,58863,5067,10,26,992
13.10.2024 12:44:27:305,351,0,1,2,28680,58862,5068,14,27,992
13.10.2024 12:44:27:308,352,0,1,2,28672,58857,5063,12,29,1001
13.10.2024 12:44:27:312,353,0,1,2,28666,58852,5065,14,27,1003
13.10.2024 12:44:27:315,354,0,1,2,28672,58858,5065,17,24,999
13.10.2024 12:44:27:318,355,0,1,2,28667,58860,5068,20,30,994
13.10.2024 12:44:27:321,356,0,1,2,28671,58870,5068,17,25,986
13.10.2024 12:44:27:325,357,0,1,2,28672,58862,5066,17,28,992
13.10.2024 12:44:27:328,358,0,1,2,28676,58862,5068,11,23,993
13.10.2024 12:44:27:331,359,0,1,2,28676,58859,5067,12,29,996
13.10.2024 12:44:27:334,360,0,1,2,28669,58862,5065,12,28,999
13.10.2024 12:44:27:338,361,0,1,2,28671,58868,5066,24,24,995
13.10.2024 12:44:27:341,362,0,1,2,28664,58864,5066,17,27,995
13.10.2024 12:44:27:344,363,0,1,2,28673,58865,5067,16,26,989
13.10.2024 12:44:27:347,364,0,1,2,28667,58858,5067,16,28,997
13.10.2024 12:44:27:351,365,0,1,2,28669,58855,5066,17,24,999
13.10.2024 12:44:27:354,366,0,1,2,28666,58850,5064,18,26,1001
13.10.2024 12:44:27:357,367,0,1,2,28664,58848,5065,24,24,1004
13.10.2024 12:44:27:360,368,0,1,2,28664,58853,5065,21,25,1007
13.10.2024 12:44:27:364,369,0,1,2,28667,58855,5067,17,22,1000
13.10.2024 12:44:27:367,370,0,1,2,28667,58863,5067,22,21,991
13.10.2024 12:44:27:370,371,0,1,2,28677,58869,5066,17,21,985
13.10.2024 12:44:27:373,372,0,1,2,28675,58870,5066,15,18,988
13.10.2024 12:44:27:376,373,0,1,2,28678,58877,5069,14,22,991
13.10.2024 12:44:27:380,374,0,1,2,28669,58856,5066,20,20,998
13.10.2024 12:44:27:383,375,0,1,2,28668,58865,5066,20,22,996
13.10.2024 12:44:27:386,376,0,1,2,28665,58859,5068,18,21,997
13.10.2024 12:44:27:389,377,0,1,2,28670,58861,5068,19,17,991
13.10.2024 12:44:27:393,378,0,1,2,28672,58873,5067,20,23,990
13.10.2024 12:44:27:396,379,0,1,2,28676,58871,5068,14,23,990
13.10.2024 12:44:27:399,380,0,1,2,28681,58882,5068,17,26,979
13.10.2024 12:44:27:402,381,0,1,2,28676,58862,5064,17,26,979
13.10.2024 12:44:27:406,382,0,1,2,28665,58855,5069,20,22,998
13.10.2024 12:44:27:409,383,0,1,2,28668,58838,5064,16,23,1006
13.10.2024 12:44:27:412,384,0,1,2,28655,58829,5064,18,20,1011
13.10.2024 12:44:27:415,385,0,1,2,28665,58854,5065,17,20,997
13.10.2024 12:44:27:419,386,0,1,2,28668,58866,5067,19,25,991
13.10.2024 12:44:27:422,387,0,1,2,28677,58871,5068,16,20,989
13.10.2024 12:44:27:425,388,0,1,2,28678,58861,5069,19,23,992
13.10.2024 12:44:27:428,389,0,1,2,28673,58855,5067,14,22,996
13.10.2024 12:44:27:432,390,0,1,2,28668,58848,5065,19,20,1004
13.10.2024 12:44:27:435,391,0,1,2,28661,58853,5066,15,17,1003
13.10.2024 12:44:27:438,392,0,1,2,28662,58854,5066,17,21,1003
13.10.2024 12:44:27:441,393,0,1,2,28665,58859,5066,22,21,998
13.10.2024 12:44:27:445,394,0,1,2,28672,58863,5066,25,24,993
13.10.2024 12:44:27:448,395,0,1,2,28674,58865,5067,15,27,991
13.10.2024 12:44:27:451,396,0,1,2,28674,58858,5068,15,25,993
13.10.2024 12:44:27:454,397,0,1,2,28667,58856,5068,22,25,994
13.10.2024 12:44:27:458,398,0,1,2,28663,58857,5067,16,22,995
13.10.2024 12:44:27:461,399,0,1,2,28668,58856,5068,17,24,996
13.10.2024 12:44:27:464,400,0,1,2,28671,58856,5067,21,26,1000
13.10.2024 12:44:27:467,401,0,1,2,28671,58856,5068,21,25,994
13.10.2024 12:44:27:471,402,0,1,2,28666,58843,5065,18,24,1002
13.10.2024 12:44:27:474,403,0,1,2,28680,58864,5065,16,25,1004
13.10.2024 12:44:27:477,404,0,1,2,28663,58856,5068,17,26,992
13.10.2024 12:44:27:480,405,0,1,2,28676,58872,5068,15,23,987
13.10.2024 12:44:27:484,406,0,1,2,28673,58862,5066,17,21,994
13.10.2024 12:44:27:487,407,0,1,2,28668,58854,5064,18,21,999
13.10.2024 12:44:27:490,408,0,1,2,28665,58853,5067,19,22,993
13.10.2024 12:44:27:493,409,0,1,2,28663,58853,5067,13,23,999
13.10.2024 12:44:27:497,410,0,1,2,28674,58855,5067,18,23,996
13.10.2024 12:44:27:500,411,0,1,2,28669,58857,5067,16,22,996
13.10.2024 12:44:27:503,412,0,1,2,28666,58861,5067,16,23,990
13.10.2024 12:44:27:506,413,0,1,2,28667,58857,5068,18,21,991
13.10.2024 12:44:27:509,414,0,1,2,28672,58851,5065,15,21,997
13.10.2024 12:44:27:513,415,0,1,2,28664,58850,5065,18,18,1000
13.10.2024 12:44:27:516,416,0,1,2,28663,58849,5065,17,18,1000
13.10.2024 12:44:27:519,417,0,1,2,28668,58851,5065,17,18,1000
13.10.2024 12:44:27:522,418,0,1,2,28668,58855,5068,20,24,1000
13.10.2024 12:44:27:526,419,0,1,2,28670,58858,5067,17,22,993
13.10.2024 12:44:27:529,420,0,1,2,28675,58856,5066,16,21,993
13.10.2024 12:44:27:532,421,0,1,2,28671,58855,5067,19,20,992
13.10.2024 12:44:27:535,422,0,1,2,28666,58856,5066,10,27,991
13.10.2024 12:44:27:539,423,0,1,2,28667,58853,5066,17,23,993
13.10.2024 12:44:27:542,424,0,1,2,28669,58850,5067,18,21,998
13.10.2024 12:44:27:545,425,0,1,2,28668,58854,5067,18,22,1000
13.10.2024 12:44:27:548,426,0,1,2,28669,58852,5068,16,22,997
13.10.2024 12:44:27:552,427,0,1,2,28673,58855,5067,14,24,995
13.10.2024 12:44:27:555,428,0,1,2,28667,58849,5065,15,25,1002
13.10.2024 12:44:27:558,429,0,1,2,28669,58851,5067,18,23,994
13.10.2024 12:44:27:561,430,0,1,2,28673,58851,5067,19,21,1000
13.10.2024 12:44:27:565,431,0,1,2,28663,58848,5066,17,25,999
13.10.2024 12:44:27:568,432,0,1,2,28665,58848,5066,19,21,995
13.10.2024 12:44:27:571,433,0,1,2,28668,58848,5066,21,21,999
13.10.2024 12:44:27:574,434,0,1,2,28666,58852,5066,18,22,992
13.10.2024 12:44:27:578,435,0,1,2,28672,58851,5067,17,23,994
13.10.2024 12:44:27:581,436,0,1,2,28664,58850,5067,19,22,995
13.10.2024 12:44:27:584,437,0,1,2,28670,58852,5065,19,26,992
13.10.2024 12:44:27:587,438,0,1,2,28668,58847,5065,15,23,995
13.10.2024 12:44:27:591,439,0,1,2,28671,58849,5067,16,25,990
13.10.2024 12:44:27:594,440,0,1,2,28668,58850,5061,17,25,994
13.10.2024 12:44:27:597,441,0,1,2,28672,58851,5068,13,22,999
13.10.2024 12:44:27:600,442,0,1,2,28668,58851,5068,21,22,995
13.10.2024 12:44:27:604,443,0,1,2,28668,58854,5066,19,23,994
13.10.2024 12:44:27:607,444,0,1,2,28671,58854,5067,22,21,994
13.10.2024 12:44:27:610,445,0,1,2,28668,58855,5065,16,24,992
13.10.2024 12:44:27:613,446,0,1,2,28673,58853,5066,18,19,997
13.10.2024 12:44:27:617,447,0,1,2,28669,58856,5068,19,18,992
13.10.2024 12:44:27:620,448,0,1,2,28671,58852,5067,20,22,995
13.10.2024 12:44:27:623,449,0,1,2,28671,58854,5066,19,20,997
13.10.2024 12:44:27:626,450,0,1,2,28668,58853,5067,21,24,994
13.10.2024 12:44:27:630,451,0,1,2,28664,58849,5066,20,21,999
13.10.2024 12:44:27:633,452,0,1,2,28668,58853,5065,18,22,993
13.10.2024 12:44:27:636,453,0,1,2,28666,58853,5067,16,25,998
13.10.2024 12:44:27:639,454,0,1,2,28670,58850,5067,17,20,1000
13.10.2024 12:44:27:642,455,0,1,2,28671,58849,5067,16,19,994
13.10.2024 12:44:27:646,456,0,1,2,28664,58843,5067,19,22,1001
13.10.2024 12:44:27:649,457,0,1,2,28676,58846,5066,16,21,996
13.10.2024 12:44:27:652,458,0,1,2,28663,58843,5067,18,20,1000
13.10.2024 12:44:27:655,459,0,1,2,28669,58845,5064,18,20,997
13.10.2024 12:44:27:659,460,0,1,2,28669,58842,5066,21,23,1002
13.10.2024 12:44:27:662,461,0,1,2,28666,58849,5067,20,23,995
13.10.2024 12:44:27:665,462,0,1,2,28666,58848,5069,18,24,1001
13.10.2024 12:44:27:668,463,0,1,2,28673,58853,5067,20,25,991
13.10.2024 12:44:27:672,464,0,1,2,28668,58847,5067,16,22,992
13.10.2024 12:44:27:675,465,0,1,2,28674,58856,5067,16,24,994
13.10.2024 12:44:27:678,466,0,1,2,28673,58858,5068,25,19,993
13.10.2024 12:44:27:681,467,0,1,2,28679,58866,5067,18,26,991
13.10.2024 12:44:27:685,468,0,1,2,28668,58829,5064,18,23,1010
13.10.2024 12:44:27:688,469,0,1,2,28675,58868,5068,18,20,985
13.10.2024 12:44:27:691,470,0,1,2,28672,58837,5065,15,29,994
13.10.2024 12:44:27:694,471,0,1,2,28658,58842,5066,13,23,993
13.10.2024 12:44:27:698,472,0,1,2,28677,58856,5067,17,21,993
13.10.2024 12:44:27:701,473,0,1,2,28669,58841,5066,12,25,999
13.10.2024 12:44:27:704,474,0,1,2,28673,58856,5068,10,26,989
13.10.2024 12:44:27:707,475,0,1,2,28677,58853,5065,14,29,997
13.10.2024 12:44:27:711,476,0,1,2,28668,58846,5067,16,26,997
13.10.2024 12:44:27:714,477,0,1,2,28680,58848,5067,17,21,1044
13.10.2024 12:44:27:717,478,0,1,2,28670,58846,5068,16,18,994
13.10.2024 12:44:27:720,479,0,1,2,28668,58844,5064,12,20,997
13.10.2024 12:44:27:724,480,0,1,2,28667,58851,5066,16,20,1001
13.10.2024 12:44:27:727,481,0,1,2,28674,58837,5067,20,21,998
13.10.2024 12:44:27:730,482,0,1,2,28678,58856,5066,21,26,992
13.10.2024 12:44:27:733,483,0,1,2,28669,58850,5067,18,15,1000
13.10.2024 12:44:27:737,484,0,1,2,28669,58842,5067,18,18,998
13.10.2024 12:44:27:740,485,0,1,2,28674,58855,5065,16,20,990
13.10.2024 12:44:27:743,486,0,1,2,28671,58842,5065,20,22,1000
13.10.2024 12:44:27:746,487,0,1,2,28670,58844,5065,20,22,998
13.10.2024 12:44:27:750,488,0,1,2,28676,58852,5067,18,22,990
13.10.2024 12:44:27:753,489,0,1,2,28671,58845,5067,16,27,995
13.10.2024 12:44:27:756,490,0,1,2,28671,58840,5065,18,29,1010
13.10.2024 12:44:27:759,491,0,1,2,28670,58847,5068,13,26,996
13.10.2024 12:44:27:763,492,0,1,2,28675,58843,5067,17,23,992
13.10.2024 12:44:27:766,493,0,1,2,28668,58834,5066,15,25,999
13.10.2024 12:44:27:769,494,0,1,2,28673,58849,5068,21,25,998
13.10.2024 12:44:27:772,495,0,1,2,28672,58854,5069,13,21,992
13.10.2024 12:44:27:775,496,0,1,2,28678,58867,5067,15,21,980
13.10.2024 12:44:27:779,497,0,1,2,28677,58860,5069,10,21,989
13.10.2024 12:44:27:782,498,0,1,2,28680,58867,5067,18,16,987
13.10.2024 12:44:27:785,499,0,1,2,28676,58862,5069,19,18,985
13.10.2024 12:44:27:788,500,0,1,2,28678,58853,5067,19,22,995
13.10.2024 12:44:27:792,501,0,1,2,28665,58829,5066,19,15,1010
13.10.2024 12:44:27:795,502,0,1,2,28665,58838,5066,18,18,1002
13.10.2024 12:44:27:798,503,0,1,2,28663,58837,5066,18,21,1003
13.10.2024 12:44:27:801,504,0,1,2,28668,58839,5065,21,20,1000
13.10.2024 12:44:27:805,505,0,1,2,28673,58848,5067,18,19,997
13.10.2024 12:44:27:808,506,0,1,2,28670,58848,5068,16,23,991
13.10.2024 12:44:27:811,507,0,1,2,28681,58855,5067,23,22,996
13.10.2024 12:44:27:814,508,0,1,2,28659,58834,5067,16,16,1005
13.10.2024 12:44:27:818,509,0,1,2,28665,58849,5068,14,20,1003
13.10.2024 12:44:27:821,510,0,1,2,28664,58838,5065,18,22,1007
13.10.2024 12:44:27:824,511,0,1,2,28662,58845,5069,15,23,997
13.10.2024 12:44:27:827,512,0,1,2,28676,58849,5066,19,21,990
13.10.2024 12:44:27:831,513,0,1,2,28670,58856,5069,16,29,985
13.10.2024 12:44:27:834,514,0,1,2,28676,58863,5068,16,22,991
13.10.2024 12:44:27:837,515,0,1,2,28676,58863,5068,17,19,986
13.10.2024 12:44:27:840,516,0,1,2,28672,58848,5066,17,23,1000
13.10.2024 12:44:27:844,517,0,1,2,28672,58848,5066,20,24,997
13.10.2024 12:44:27:847,518,0,1,2,28663,58838,5065,16,24,1003
13.10.2024 12:44:27:850,519,0,1,2,28670,58844,5065,16,24,1003
13.10.2024 12:44:27:853,520,0,1,2,28668,58836,5066,19,23,1007
13.10.2024 12:44:27:857,521,0,1,2,28669,58841,5065,13,28,999
13.10.2024 12:44:27:860,522,0,1,2,28671,58846,5066,16,26,992
13.10.2024 12:44:27:863,523,0,1,2,28664,58836,5067,19,29,994
13.10.2024 12:44:27:866,524,0,1,2,28676,58842,5065,17,27,995
13.10.2024 12:44:27:870,525,0,1,2,28672,58838,5067,16,25,999
13.10.2024 12:44:27:873,526,0,1,2,28672,58836,5064,16,29,1003
13.10.2024 12:44:27:876,527,0,1,2,28669,58851,5068,9,29,990
13.10.2024 12:44:27:879,528,0,1,2,28672,58846,5065,18,29,991
13.10.2024 12:44:27:883,529,0,1,2,28676,58861,5069,16,28,985
13.10.2024 12:44:27:886,530,0,1,2,28676,58854,5065,18,28,994
13.10.2024 12:44:27:889,531,0,1,2,28674,58861,5069,14,27,991
13.10.2024 12:44:27:892,532,0,1,2,28674,58839,5066,17,24,998
13.10.2024 12:44:27:896,533,0,1,2,28673,58844,5067,13,28,1003
13.10.2024 12:44:27:899,534,0,1,2,28670,58842,5065,15,26,996
13.10.2024 12:44:27:902,535,0,1,2,28665,58839,5064,16,21,1004
13.10.2024 12:44:27:905,536,0,1,2,28673,58843,5065,19,22,1001
13.10.2024 12:44:27:908,537,0,1,2,28664,58841,5066,16,20,1001
13.10.2024 12:44:27:912,538,0,1,2,28671,58842,5066,24,20,1000
13.10.2024 12:44:27:915,539,0,1,2,28664,58842,5070,16,17,995
13.10.2024 12:44:27:918,540,0,1,2,28670,58842,5066,19,18,999
13.10.2024 12:44:27:921,541,0,1,2,28668,58845,5068,17,13,1000
13.10.2024 12:44:27:925,542,0,1,2,28666,58848,5064,17,17,1000
13.10.2024 12:44:27:928,543,0,1,2,28673,58848,5068,22,16,994
13.10.2024 12:44:27:931,544,0,1,2,28671,58853,5068,18,15,993
13.10.2024 12:44:27:934,545,0,1,2,28672,58848,5067,15,18,995
13.10.2024 12:44:27:938,546,0,1,2,28674,58853,5066,12,17,989
13.10.2024 12:44:27:941,547,0,1,2,28673,58847,5067,20,19,998
13.10.2024 12:44:27:944,548,0,1,2,28672,58853,5068,13,15,998
13.10.2024 12:44:27:947,549,0,1,2,28669,58840,5066,16,17,1004
13.10.2024 12:44:27:951,550,0,1,2,28665,58846,5067,19,17,999
13.10.2024 12:44:27:954,551,0,1,2,28667,58841,5066,21,15,1001
13.10.2024 12:44:27:957,552,0,1,2,28664,58844,5066,18,20,995
13.10.2024 12:44:27:960,553,0,1,2,28666,58840,5067,18,24,997
13.10.2024 12:44:27:964,554,0,1,2,28671,58845,5065,17,24,995
13.10.2024 12:44:27:967,555,0,1,2,28673,58843,5067,20,22,997
13.10.2024 12:44:27:970,556,0,1,2,28671,58845,5066,20,26,997
13.10.2024 12:44:27:973,557,0,1,2,28671,58842,5069,18,25,999
13.10.2024 12:44:27:977,558,0,1,2,28671,58843,5067,14,27,992
13.10.2024 12:44:27:980,559,0,1,2,28672,58850,5068,14,29,990
13.10.2024 12:44:27:983,560,0,1,2,28675,58843,5066,14,29,990
13.10.2024 12:44:27:986,561,0,1,2,28675,58853,5069,16,29,996
13.10.2024 12:44:27:990,562,0,1,2,28673,58844,5066,18,28,996
13.10.2024 12:44:27:993,563,0,1,2,28668,58850,5068,19,25,993
13.10.2024 12:44:27:996,564,0,1,2,28678,58851,5067,18,27,995
13.10.2024 12:44:27:999,565,0,1,2,28666,58837,5065,18,27,995
13.10.2024 12:44:28:3,566,0,1,2,28673,58846,5067,14,24,998
13.10.2024 12:44:28:6,567,0,1,2,28670,58834,5065,14,24,998
13.10.2024 12:44:28:9,568,0,1,2,28669,58842,5069,16,27,1002
13.10.2024 12:44:28:12,569,0,1,2,28666,58829,5070,18,27,1001
13.10.2024 12:44:28:16,570,0,1,2,28664,58836,5066,14,27,998
13.10.2024 12:44:28:19,571,0,1,2,28671,58838,5068,16,24,997
13.10.2024 12:44:28:22,572,0,1,2,28673,58838,5066,17,23,992
13.10.2024 12:44:28:25,573,0,1,2,28668,58843,5067,15,26,995
13.10.2024 12:44:28:29,574,0,1,2,28672,58843,5065,14,26,996
13.10.2024 12:44:28:32,575,0,1,2,28671,58844,5066,13,23,993
13.10.2024 12:44:28:35,576,0,1,2,28671,58840,5067,13,27,995
13.10.2024 12:44:28:38,577,0,1,2,28673,58838,5067,14,23,998
13.10.2024 12:44:28:41,578,0,1,2,28672,58850,5065,14,28,994
13.10.2024 12:44:28:45,579,0,1,2,28668,58841,5068,14,25,990
13.10.2024 12:44:28:48,580,0,1,2,28671,58843,5068,13,24,990
13.10.2024 12:44:28:51,581,0,1,2,28673,58841,5067,16,25,991
13.10.2024 12:44:28:54,582,0,1,2,28670,58837,5068,16,25,991
13.10.2024 12:44:28:58,583,0,1,2,28669,58836,5064,22,29,991
13.10.2024 12:44:28:61,584,0,1,2,28666,58832,5065,17,28,1001
13.10.2024 12:44:28:64,585,0,1,2,28667,58827,5065,23,32,1002
13.10.2024 12:44:28:67,586,0,1,2,28668,58831,5065,15,24,1000
13.10.2024 12:44:28:71,587,0,1,2,28665,58833,5065,19,26,998
13.10.2024 12:44:28:74,588,0,1,2,28663,58837,5064,18,26,995
13.10.2024 12:44:28:77,589,0,1,2,28668,58837,5064,16,20,994
13.10.2024 12:44:28:80,590,0,1,2,28672,58841,5066,14,17,996
13.10.2024 12:44:28:84,591,0,1,2,28668,58837,5066,18,20,997
13.10.2024 12:44:28:87,592,0,1,2,28668,58840,5068,15,23,991
13.10.2024 12:44:28:90,593,0,1,2,28670,58846,5068,21,16,989
13.10.2024 12:44:28:93,594,0,1,2,28665,58840,5068,16,18,990
13.10.2024 12:44:28:97,595,0,1,2,28670,58846,5065,19,17,991
13.10.2024 12:44:28:100,596,0,1,2,28667,58843,5067,18,19,997
13.10.2024 12:44:28:103,597,0,1,2,28667,58845,5066,18,19,997
13.10.2024 12:44:28:106,598,0,1,2,28666,58838,5065,18,17,996
13.10.2024 12:44:28:110,599,0,1,2,28659,58835,5066,21,19,1005
13.10.2024 12:44:28:113,600,0,1,2,28667,58837,5064,17,15,993
13.10.2024 12:44:28:116,601,0,1,2,28666,58834,5066,21,20,1000
13.10.2024 12:44:28:119,602,0,1,2,28667,58837,5067,22,20,997
13.10.2024 12:44:28:123,603,0,1,2,28666,58837,5066,23,20,993
13.10.2024 12:44:28:126,604,0,1,2,28671,58837,5067,19,16,998
13.10.2024 12:44:28:129,605,0,1,2,28662,58836,5067,24,21,997
13.10.2024 12:44:28:132,606,0,1,2,28664,58837,5066,24,21,997
13.10.2024 12:44:28:136,607,0,1,2,28669,58838,5066,16,22,993
13.10.2024 12:44:28:139,608,0,1,2,28674,58838,5066,17,25,994
13.10.2024 12:44:28:142,609,0,1,2,28667,58837,5063,16,21,994
13.10.2024 12:44:28:145,610,0,1,2,28670,58840,5067,15,18,993
13.10.2024 12:44:28:149,611,0,1,2,28673,58840,5067,20,21,992
13.10.2024 12:44:28:152,612,0,1,2,28667,58838,5067,20,21,992
13.10.2024 12:44:28:155,613,0,1,2,28666,58836,5064,14,25,997
13.10.2024 12:44:28:158,614,0,1,2,28666,58835,5067,18,19,996
13.10.2024 12:44:28:162,615,0,1,2,28663,58829,5066,15,20,997
13.10.2024 12:44:28:165,616,0,1,2,28663,58824,5063,14,26,942
13.10.2024 12:44:28:168,617,0,1,2,28657,58826,5066,14,24,998
13.10.2024 12:44:28:171,618,0,1,2,28669,58826,5064,15,28,1003
13.10.2024 12:44:28:174,619,0,1,2,28666,58831,5066,14,27,994
13.10.2024 12:44:28:178,620,0,1,2,28661,58827,5066,18,26,1000
13.10.2024 12:44:28:181,621,0,1,2,28669,58830,5066,19,29,998
13.10.2024 12:44:28:184,622,0,1,2,28661,58830,5065,16,27,998
13.10.2024 12:44:28:187,623,0,1,2,28664,58834,5066,18,22,992
13.10.2024 12:44:28:191,624,0,1,2,28665,58837,5067,18,28,996
13.10.2024 12:44:28:194,625,0,1,2,28665,58835,5066,16,25,994
13.10.2024 12:44:28:197,626,0,1,2,28671,58835,5066,18,26,994
13.10.2024 12:44:28:200,627,0,1,2,28669,58839,5066,18,26,994
13.10.2024 12:44:28:204,628,0,1,2,28667,58838,5067,20,22,995
13.10.2024 12:44:28:207,629,0,1,2,28668,58840,5067,18,25,994
13.10.2024 12:44:28:210,630,0,1,2,28672,58836,5067,14,26,994
13.10.2024 12:44:28:213,631,0,1,2,28664,58836,5065,19,27,995
13.10.2024 12:44:28:217,632,0,1,2,28665,58833,5065,19,22,1000
13.10.2024 12:44:28:220,633,0,1,2,28665,58833,5066,12,21,996
13.10.2024 12:44:28:223,634,0,1,2,28661,58831,5065,21,22,1004
13.10.2024 12:44:28:226,635,0,1,2,28665,58830,5065,20,18,995
13.10.2024 12:44:28:230,636,0,1,2,28662,58831,5066,23,16,999
13.10.2024 12:44:28:233,637,0,1,2,28663,58832,5067,18,16,998
13.10.2024 12:44:28:236,638,0,1,2,28669,58834,5067,17,23,997
13.10.2024 12:44:28:239,639,0,1,2,28664,58831,5065,17,18,1001
13.10.2024 12:44:28:243,640,0,1,2,28663,58832,5067,16,22,994
13.10.2024 12:44:28:246,641,0,1,2,28667,58834,5065,11,21,995
13.10.2024 12:44:28:249,642,0,1,2,28667,58831,5065,11,21,995
13.10.2024 12:44:28:252,643,0,1,2,28662,58831,5066,15,22,994
13.10.2024 12:44:28:256,644,0,1,2,28668,58833,5067,14,24,997
13.10.2024 12:44:28:259,645,0,1,2,28666,58830,5067,14,20,992
13.10.2024 12:44:28:262,646,0,1,2,28670,58831,5067,16,20,993
13.10.2024 12:44:28:265,647,0,1,2,28666,58826,5066,15,22,1000
13.10.2024 12:44:28:269,648,0,1,2,28665,58828,5065,15,22,999
13.10.2024 12:44:28:272,649,0,1,2,28666,58829,5064,15,23,999
13.10.2024 12:44:28:275,650,0,1,2,28664,58824,5065,15,22,996
13.10.2024 12:44:28:278,651,0,1,2,28664,58827,5064,13,24,994
13.10.2024 12:44:28:282,652,0,1,2,28667,58831,5067,13,24,994
13.10.2024 12:44:28:285,653,0,1,2,28664,58831,5064,7,26,999
13.10.2024 12:44:28:288,654,0,1,2,28664,58828,5067,17,22,997
13.10.2024 12:44:28:291,655,0,1,2,28669,58832,5064,12,23,997
13.10.2024 12:44:28:295,656,0,1,2,28661,58830,5068,20,24,992
13.10.2024 12:44:28:298,657,0,1,2,28664,58832,5067,20,24,992
13.10.2024 12:44:28:301,658,0,1,2,28666,58830,5066,13,24,994
13.10.2024 12:44:28:304,659,0,1,2,28668,58829,5067,22,21,998
13.10.2024 12:44:28:307,660,0,1,2,28670,58829,5066,11,23,995
13.10.2024 12:44:28:311,661,0,1,2,28664,58830,5065,18,25,996
13.10.2024 12:44:28:314,662,0,1,2,28670,58835,5065,19,23,994
13.10.2024 12:44:28:317,663,0,1,2,28662,58825,5066,21,23,1002
13.10.2024 12:44:28:320,664,0,1,2,28663,58828,5068,20,25,998
13.10.2024 12:44:28:324,665,0,1,2,28664,58827,5064,15,28,998
13.10.2024 12:44:28:327,666,0,1,2,28669,58830,5066,18,25,995
13.10.2024 12:44:28:330,667,0,1,2,28666,58826,5065,18,25,994
13.10.2024 12:44:28:333,668,0,1,2,28662,58827,5067,16,21,995
13.10.2024 12:44:28:337,669,0,1,2,28668,58831,5066,17,24,999
13.10.2024 12:44:28:340,670,0,1,2,28671,58829,5065,19,23,991
13.10.2024 12:44:28:343,671,0,1,2,28670,58830,5067,18,24,993
13.10.2024 12:44:28:346,672,0,1,2,28665,58834,5067,18,24,993
13.10.2024 12:44:28:350,673,0,1,2,28666,58834,5065,21,28,996
13.10.2024 12:44:28:353,674,0,1,2,28665,58830,5065,18,24,990
13.10.2024 12:44:28:356,675,0,1,2,28665,58832,5066,20,25,995
13.10.2024 12:44:28:359,676,0,1,2,28666,58833,5065,13,26,994
13.10.2024 12:44:28:363,677,0,1,2,28660,58830,5068,22,20,992
13.10.2024 12:44:28:366,678,0,1,2,28665,58829,5066,17,17,995
13.10.2024 12:44:28:369,679,0,1,2,28663,58835,5065,12,18,990
13.10.2024 12:44:28:372,680,0,1,2,28661,58816,5064,21,19,999
13.10.2024 12:44:28:376,681,0,1,2,28657,58826,5067,16,17,996
13.10.2024 12:44:28:379,682,0,1,2,28666,58828,5064,18,15,997
13.10.2024 12:44:28:382,683,0,1,2,28662,58817,5063,16,19,1002
13.10.2024 12:44:28:385,684,0,1,2,28662,58836,5066,13,19,996
13.10.2024 12:44:28:389,685,0,1,2,28662,58819,5066,16,22,999
13.10.2024 12:44:28:392,686,0,1,2,28667,58833,5066,17,19,993
13.10.2024 12:44:28:395,687,0,1,2,28660,58828,5066,17,19,993
13.10.2024 12:44:28:398,688,0,1,2,28660,58829,5067,13,21,990
13.10.2024 12:44:28:402,689,0,1,2,28665,58827,5066,14,21,993
13.10.2024 12:44:28:405,690,0,1,2,28657,58829,5066,13,23,998
13.10.2024 12:44:28:408,691,0,1,2,28663,58832,5064,14,25,995
13.10.2024 12:44:28:411,692,0,1,2,28662,58827,5065,16,24,996
13.10.2024 12:44:28:415,693,0,1,2,28663,58827,5066,11,24,998
13.10.2024 12:44:28:418,694,0,1,2,28660,58820,5066,19,25,998
13.10.2024 12:44:28:421,695,0,1,2,28659,58827,5065,17,20,994
13.10.2024 12:44:28:424,696,0,1,2,28661,58823,5065,15,26,995
13.10.2024 12:44:28:428,697,0,1,2,28659,58826,5066,13,26,997
13.10.2024 12:44:28:431,698,0,1,2,28666,58826,5065,13,23,1000
13.10.2024 12:44:28:434,699,0,1,2,28661,58822,5067,14,23,1000
13.10.2024 12:44:28:437,700,0,1,2,28663,58827,5066,18,26,997
13.10.2024 12:44:28:440,701,0,1,2,28662,58829,5065,15,19,998
13.10.2024 12:44:28:444,702,0,1,2,28663,58830,5066,15,19,998
13.10.2024 12:44:28:447,703,0,1,2,28661,58826,5065,20,24,996
13.10.2024 12:44:28:450,704,0,1,2,28657,58828,5066,19,23,999
13.10.2024 12:44:28:453,705,0,1,2,28662,58828,5066,18,24,998
13.10.2024 12:44:28:457,706,0,1,2,28664,58831,5065,21,28,994
13.10.2024 12:44:28:460,707,0,1,2,28665,58833,5067,23,27,995
13.10.2024 12:44:28:463,708,0,1,2,28661,58828,5065,18,22,996
13.10.2024 12:44:28:466,709,0,1,2,28661,58829,5065,20,21,996
13.10.2024 12:44:28:470,710,0,1,2,28668,58830,5068,22,25,995
13.10.2024 12:44:28:473,711,0,1,2,28659,58827,5067,20,25,995
13.10.2024 12:44:28:476,712,0,1,2,28664,58829,5067,13,22,996
13.10.2024 12:44:28:479,713,0,1,2,28659,58826,5066,16,21,994
13.10.2024 12:44:28:483,714,0,1,2,28660,58824,5066,15,22,995
13.10.2024 12:44:28:486,715,0,1,2,28660,58825,5065,19,22,997
13.10.2024 12:44:28:489,716,0,1,2,28657,58827,5066,19,21,995
13.10.2024 12:44:28:492,717,0,1,2,28664,58831,5066,16,21,994
13.10.2024 12:44:28:496,718,0,1,2,28657,58829,5065,18,19,991
13.10.2024 12:44:28:499,719,0,1,2,28664,58830,5065,19,20,995
13.10.2024 12:44:28:502,720,0,1,2,28657,58828,5066,18,22,989
13.10.2024 12:44:28:505,721,0,1,2,28663,58831,5065,15,20,996
13.10.2024 12:44:28:509,722,0,1,2,28661,58827,5065,13,23,997
13.10.2024 12:44:28:512,723,0,1,2,28659,58830,5064,17,20,995
13.10.2024 12:44:28:515,724,0,1,2,28661,58826,5066,13,24,992
13.10.2024 12:44:28:518,725,0,1,2,28662,58828,5065,17,21,996
13.10.2024 12:44:28:522,726,0,1,2,28664,58826,5067,17,23,995
13.10.2024 12:44:28:525,727,0,1,2,28659,58826,5064,16,25,999
13.10.2024 12:44:28:528,728,0,1,2,28659,58824,5066,14,20,997
13.10.2024 12:44:28:531,729,0,1,2,28665,58826,5066,17,17,939
13.10.2024 12:44:28:535,730,0,1,2,28659,58820,5063,11,24,995
13.10.2024 12:44:28:538,731,0,1,2,28665,58823,5064,13,25,1003
13.10.2024 12:44:28:541,732,0,1,2,28663,58824,5064,16,23,999
13.10.2024 12:44:28:544,733,0,1,2,28654,58825,5066,14,29,999
13.10.2024 12:44:28:548,734,0,1,2,28654,58823,5066,17,21,997
13.10.2024 12:44:28:551,735,0,1,2,28661,58827,5065,17,20,996
13.10.2024 12:44:28:554,736,0,1,2,28656,58829,5066,19,22,999
13.10.2024 12:44:28:557,737,0,1,2,28661,58829,5065,14,27,999
13.10.2024 12:44:28:561,738,0,1,2,28661,58828,5065,14,25,994
13.10.2024 12:44:28:564,739,0,1,2,28660,58826,5063,15,24,994
13.10.2024 12:44:28:567,740,0,1,2,28663,58825,5064,19,24,996
13.10.2024 12:44:28:570,741,0,1,2,28658,58828,5067,18,26,996
13.10.2024 12:44:28:573,742,0,1,2,28659,58827,5064,18,23,998
13.10.2024 12:44:28:577,743,0,1,2,28656,58825,5064,17,25,995
13.10.2024 12:44:28:580,744,0,1,2,28657,58826,5065,17,25,995
13.10.2024 12:44:28:583,745,0,1,2,28658,58828,5065,22,20,996
13.10.2024 12:44:28:586,746,0,1,2,28659,58828,5066,18,21,997
13.10.2024 12:44:28:590,747,0,1,2,28664,58830,5066,16,24,999
13.10.2024 12:44:28:593,748,0,1,2,28656,58827,5065,22,22,996
13.10.2024 12:44:28:596,749,0,1,2,28662,58827,5065,15,27,995
13.10.2024 12:44:28:599,750,0,1,2,28663,58825,5064,18,27,991
13.10.2024 12:44:28:603,751,0,1,2,28659,58831,5065,13,22,995
13.10.2024 12:44:28:606,752,0,1,2,28657,58831,5067,14,22,995
13.10.2024 12:44:28:609,753,0,1,2,28656,58832,5063,17,24,996
13.10.2024 12:44:28:612,754,0,1,2,28661,58828,5066,18,23,991
13.10.2024 12:44:28:616,755,0,1,2,28661,58827,5064,20,24,994
13.10.2024 12:44:28:619,756,0,1,2,28662,58828,5065,17,15,994
13.10.2024 12:44:28:622,757,0,1,2,28659,58824,5064,20,22,999
13.10.2024 12:44:28:625,758,0,1,2,28657,58823,5066,15,22,995
13.10.2024 12:44:28:629,759,0,1,2,28656,58821,5064,13,19,999
13.10.2024 12:44:28:632,760,0,1,2,28657,58822,5064,16,21,996
13.10.2024 12:44:28:635,761,0,1,2,28657,58820,5067,14,22,997
13.10.2024 12:44:28:638,762,0,1,2,28662,58825,5066,18,20,994
13.10.2024 12:44:28:642,763,0,1,2,28659,58822,5063,18,24,996
13.10.2024 12:44:28:645,764,0,1,2,28654,58829,5064,14,25,997
13.10.2024 12:44:28:648,765,0,1,2,28660,58825,5066,12,26,999
13.10.2024 12:44:28:651,766,0,1,2,28661,58828,5065,14,26,994
13.10.2024 12:44:28:655,767,0,1,2,28657,58827,5065,13,24,994
13.10.2024 12:44:28:658,768,0,1,2,28656,58827,5066,19,22,996
13.10.2024 12:44:28:661,769,0,1,2,28659,58829,5066,16,24,992
13.10.2024 12:44:28:664,770,0,1,2,28663,58826,5066,14,22,995
13.10.2024 12:44:28:668,771,0,1,2,28662,58827,5065,16,22,996
13.10.2024 12:44:28:671,772,0,1,2,28657,58826,5064,18,27,994
13.10.2024 12:44:28:674,773,0,1,2,28657,58826,5065,16,22,996
13.10.2024 12:44:28:677,774,0,1,2,28655,58825,5066,15,23,1000
13.10.2024 12:44:28:681,775,0,1,2,28656,58821,5065,14,24,1000
13.10.2024 12:44:28:684,776,0,1,2,28656,58822,5065,14,21,998
13.10.2024 12:44:28:687,777,0,1,2,28661,58818,5066,19,23,997
13.10.2024 12:44:28:690,778,0,1,2,28658,58822,5065,17,24,996
13.10.2024 12:44:28:694,779,0,1,2,28655,58822,5064,19,23,996
13.10.2024 12:44:28:697,780,0,1,2,28656,58822,5065,14,22,998
13.10.2024 12:44:28:700,781,0,1,2,28656,58824,5065,14,24,994
13.10.2024 12:44:28:703,782,0,1,2,28660,58824,5065,17,22,997
13.10.2024 12:44:28:706,783,0,1,2,28659,58827,5066,21,20,997
13.10.2024 12:44:28:710,784,0,1,2,28652,58826,5069,14,23,994
13.10.2024 12:44:28:713,785,0,1,2,28657,58823,5066,16,27,994
13.10.2024 12:44:28:716,786,0,1,2,28658,58826,5065,17,27,992
13.10.2024 12:44:28:719,787,0,1,2,28662,58826,5067,18,23,995
13.10.2024 12:44:28:723,788,0,1,2,28657,58824,5065,20,25,994
13.10.2024 12:44:28:726,789,0,1,2,28653,58826,5064,20,26,995
13.10.2024 12:44:28:729,790,0,1,2,28656,58823,5065,20,26,995
13.10.2024 12:44:28:732,791,0,1,2,28657,58823,5066,15,21,997
13.10.2024 12:44:28:736,792,0,1,2,28660,58818,5065,17,17,999
13.10.2024 12:44:28:739,793,0,1,2,28655,58820,5064,19,23,999
13.10.2024 12:44:28:742,794,0,1,2,28658,58821,5064,17,21,992
13.10.2024 12:44:28:745,795,0,1,2,28659,58819,5066,17,23,995
13.10.2024 12:44:28:749,796,0,1,2,28655,58820,5064,15,19,995
13.10.2024 12:44:28:752,797,0,1,2,28661,58827,5066,21,18,994
13.10.2024 12:44:28:755,798,0,1,2,28660,58824,5065,20,19,996
13.10.2024 12:44:28:758,799,0,1,2,28660,58825,5064,17,20,994
13.10.2024 12:44:28:762,800,0,1,2,28656,58823,5065,17,25,998
13.10.2024 12:44:28:765,801,0,1,2,28654,58826,5065,17,25,999
13.10.2024 12:44:28:768,802,0,1,2,28655,58821,5065,15,24,998
13.10.2024 12:44:28:771,803,0,1,2,28653,58824,5064,15,23,994
13.10.2024 12:44:28:775,804,0,1,2,28655,58824,5067,16,22,995
13.10.2024 12:44:28:778,805,0,1,2,28649,58828,5066,20,22,997
13.10.2024 12:44:28:781,806,0,1,2,28660,58823,5066,16,21,996
13.10.2024 12:44:28:784,807,0,1,2,28659,58819,5064,18,21,996
13.10.2024 12:44:28:788,808,0,1,2,28660,58821,5063,14,20,994
13.10.2024 12:44:28:791,809,0,1,2,28653,58820,5065,12,21,1003
13.10.2024 12:44:28:794,810,0,1,2,28653,58823,5063,20,20,995
13.10.2024 12:44:28:797,811,0,1,2,28655,58821,5065,17,27,996
13.10.2024 12:44:28:801,812,0,1,2,28658,58822,5067,15,24,994
13.10.2024 12:44:28:804,813,0,1,2,28654,58825,5064,16,24,994
13.10.2024 12:44:28:807,814,0,1,2,28654,58826,5066,16,23,998
13.10.2024 12:44:28:810,815,0,1,2,28660,58829,5066,19,28,992
13.10.2024 12:44:28:814,816,0,1,2,28661,58825,5065,17,24,996
13.10.2024 12:44:28:817,817,0,1,2,28658,58824,5065,20,29,1000
13.10.2024 12:44:28:820,818,0,1,2,28660,58825,5063,19,21,998
13.10.2024 12:44:28:823,819,0,1,2,28655,58823,5065,15,27,997
13.10.2024 12:44:28:827,820,0,1,2,28654,58824,5066,19,26,994
13.10.2024 12:44:28:830,821,0,1,2,28659,58820,5065,20,24,997
13.10.2024 12:44:28:833,822,0,1,2,28655,58821,5066,15,22,994
13.10.2024 12:44:28:836,823,0,1,2,28658,58820,5064,18,20,999
13.10.2024 12:44:28:839,824,0,1,2,28652,58821,5067,15,24,996
13.10.2024 12:44:28:843,825,0,1,2,28655,58819,5064,19,24,998
13.10.2024 12:44:28:846,826,0,1,2,28657,58823,5065,19,27,995
13.10.2024 12:44:28:849,827,0,1,2,28661,58823,5065,18,25,998
13.10.2024 12:44:28:852,828,0,1,2,28656,58823,5064,17,25,996
13.10.2024 12:44:28:856,829,0,1,2,28658,58819,5065,13,28,993
13.10.2024 12:44:28:859,830,0,1,2,28656,58819,5066,16,23,995
13.10.2024 12:44:28:862,831,0,1,2,28660,58824,5065,22,23,996
13.10.2024 12:44:28:865,832,0,1,2,28655,58821,5066,18,27,1001
13.10.2024 12:44:28:869,833,0,1,2,28656,58824,5067,17,20,996
13.10.2024 12:44:28:872,834,0,1,2,28657,58821,5065,18,20,993
13.10.2024 12:44:28:875,835,0,1,2,28653,58818,5066,19,19,995
13.10.2024 12:44:28:878,836,0,1,2,28657,58823,5066,19,19,995
13.10.2024 12:44:28:882,837,0,1,2,28659,58824,5064,18,18,996
13.10.2024 12:44:28:885,838,0,1,2,28660,58823,5066,12,21,997
13.10.2024 12:44:28:888,839,0,1,2,28652,58824,5065,18,21,995
13.10.2024 12:44:28:891,840,0,1,2,28655,58822,5065,17,24,997
13.10.2024 12:44:28:895,841,0,1,2,28661,58818,5065,20,20,994
13.10.2024 12:44:28:898,842,0,1,2,28652,58817,5065,20,22,996
13.10.2024 12:44:28:901,843,0,1,2,28657,58818,5064,14,22,996
13.10.2024 12:44:28:904,844,0,1,2,28653,58817,5064,15,24,997
13.10.2024 12:44:28:908,845,0,1,2,28649,58821,5066,12,26,997
13.10.2024 12:44:28:911,846,0,1,2,28657,58816,5066,15,21,995
13.10.2024 12:44:28:914,847,0,1,2,28656,58819,5065,17,28,1000
13.10.2024 12:44:28:917,848,0,1,2,28651,58818,5066,16,21,999
13.10.2024 12:44:28:921,849,0,1,2,28656,58823,5067,16,23,996
13.10.2024 12:44:28:924,850,0,1,2,28655,58817,5066,17,23,998
13.10.2024 12:44:28:927,851,0,1,2,28656,58819,5065,18,22,994
13.10.2024 12:44:28:930,852,0,1,2,28654,58820,5066,17,25,999
13.10.2024 12:44:28:934,853,0,1,2,28651,58818,5065,17,18,1000
13.10.2024 12:44:28:937,854,0,1,2,28655,58817,5064,20,23,997
13.10.2024 12:44:28:940,855,0,1,2,28653,58815,5066,18,25,997
13.10.2024 12:44:28:943,856,0,1,2,28656,58820,5066,18,27,999
13.10.2024 12:44:28:947,857,0,1,2,28657,58823,5066,16,25,997
13.10.2024 12:44:28:950,858,0,1,2,28653,58821,5066,18,24,997
13.10.2024 12:44:28:953,859,0,1,2,28654,58821,5065,22,24,998
13.10.2024 12:44:28:956,860,0,1,2,28655,58824,5065,18,26,1003
13.10.2024 12:44:28:960,861,0,1,2,28661,58821,5066,20,22,996
13.10.2024 12:44:28:963,862,0,1,2,28659,58822,5068,21,27,992
13.10.2024 12:44:28:966,863,0,1,2,28656,58820,5067,19,24,996
13.10.2024 12:44:28:969,864,0,1,2,28662,58822,5067,17,24,997
13.10.2024 12:44:28:972,865,0,1,2,28662,58818,5065,20,18,996
13.10.2024 12:44:28:976,866,0,1,2,28657,58820,5066,19,22,995
13.10.2024 12:44:28:979,867,0,1,2,28656,58819,5066,15,25,997
13.10.2024 12:44:28:982,868,0,1,2,28656,58817,5065,19,20,1001
13.10.2024 12:44:28:985,869,0,1,2,28654,58820,5065,18,21,996
13.10.2024 12:44:28:989,870,0,1,2,28655,58819,5063,19,21,997
13.10.2024 12:44:28:992,871,0,1,2,28655,58821,5067,19,20,994
13.10.2024 12:44:28:995,872,0,1,2,28657,58822,5065,20,19,998
13.10.2024 12:44:28:998,873,0,1,2,28653,58821,5066,17,23,996
13.10.2024 12:44:29:2,874,0,1,2,28657,58819,5066,17,21,994
13.10.2024 12:44:29:5,875,0,1,2,28655,58816,5066,16,22,997
13.10.2024 12:44:29:8,876,0,1,2,28657,58820,5066,20,19,995
13.10.2024 12:44:29:11,877,0,1,2,28656,58817,5067,17,21,994
13.10.2024 12:44:29:15,878,0,1,2,28657,58822,5067,15,23,994
13.10.2024 12:44:29:18,879,0,1,2,28656,58823,5065,17,22,994
13.10.2024 12:44:29:21,880,0,1,2,28658,58819,5066,12,20,998
13.10.2024 12:44:29:24,881,0,1,2,28654,58822,5067,19,21,998
13.10.2024 12:44:29:28,882,0,1,2,28655,58820,5064,19,21,998
13.10.2024 12:44:29:31,883,0,1,2,28656,58819,5066,16,22,995
13.10.2024 12:44:29:34,884,0,1,2,28654,58815,5065,16,24,995
13.10.2024 12:44:29:37,885,0,1,2,28655,58817,5065,18,21,997
13.10.2024 12:44:29:41,886,0,1,2,28655,58819,5065,19,21,999
13.10.2024 12:44:29:44,887,0,1,2,28659,58816,5066,17,25,997
13.10.2024 12:44:29:47,888,0,1,2,28658,58816,5065,15,23,996
13.10.2024 12:44:29:50,889,0,1,2,28655,58816,5066,15,21,996
13.10.2024 12:44:29:54,890,0,1,2,28653,58817,5065,18,19,998
13.10.2024 12:44:29:57,891,0,1,2,28654,58818,5065,16,25,997
13.10.2024 12:44:29:60,892,0,1,2,28658,58822,5066,13,23,992
13.10.2024 12:44:29:63,893,0,1,2,28653,58818,5065,15,23,994
13.10.2024 12:44:29:67,894,0,1,2,28656,58822,5065,14,20,993
13.10.2024 12:44:29:70,895,0,1,2,28656,58820,5068,15,18,993
13.10.2024 12:44:29:73,896,0,1,2,28658,58820,5065,19,27,997
13.10.2024 12:44:29:76,897,0,1,2,28655,58818,5065,18,23,997
13.10.2024 12:44:29:80,898,0,1,2,28656,58818,5067,15,26,996
13.10.2024 12:44:29:83,899,0,1,2,28657,58817,5066,17,21,997
13.10.2024 12:44:29:86,900,0,1,2,28650,58816,5065,23,27,998
13.10.2024 12:44:29:89,901,0,1,2,28655,58816,5066,15,28,995
13.10.2024 12:44:29:93,902,0,1,2,28655,58816,5065,18,23,999
13.10.2024 12:44:29:96,903,0,1,2,28656,58817,5065,19,27,996
13.10.2024 12:44:29:99,904,0,1,2,28657,58819,5066,22,21,999
13.10.2024 12:44:29:102,905,0,1,2,28658,58818,5064,20,24,997
13.10.2024 12:44:29:105,906,0,1,2,28652,58818,5067,18,28,995
13.10.2024 12:44:29:109,907,0,1,2,28658,58822,5066,13,28,997
13.10.2024 12:44:29:112,908,0,1,2,28654,58818,5066,12,22,997
13.10.2024 12:44:29:115,909,0,1,2,28652,58818,5063,18,24,995
13.10.2024 12:44:29:118,910,0,1,2,28655,58819,5065,23,19,996
13.10.2024 12:44:29:122,911,0,1,2,28653,58820,5063,15,21,995
13.10.2024 12:44:29:125,912,0,1,2,28662,58817,5064,17,25,999
13.10.2024 12:44:29:128,913,0,1,2,28653,58816,5065,17,25,999
13.10.2024 12:44:29:131,914,0,1,2,28653,58817,5066,16,25,993
13.10.2024 12:44:29:135,915,0,1,2,28651,58817,5064,18,26,995
13.10.2024 12:44:29:138,916,0,1,2,28655,58816,5064,17,25,997
13.10.2024 12:44:29:141,917,0,1,2,28655,58817,5067,17,23,999
13.10.2024 12:44:29:144,918,0,1,2,28655,58818,5068,16,24,994
13.10.2024 12:44:29:148,919,0,1,2,28657,58817,5065,19,19,997
13.10.2024 12:44:29:151,920,0,1,2,28654,58820,5064,15,22,998
13.10.2024 12:44:29:154,921,0,1,2,28652,58816,5065,18,19,998
13.10.2024 12:44:29:157,922,0,1,2,28656,58818,5064,20,21,994
13.10.2024 12:44:29:161,923,0,1,2,28655,58817,5065,15,20,995
13.10.2024 12:44:29:164,924,0,1,2,28650,58823,5067,16,25,996
13.10.2024 12:44:29:167,925,0,1,2,28652,58819,5065,17,16,994
13.10.2024 12:44:29:170,926,0,1,2,28652,58823,5067,19,20,995
13.10.2024 12:44:29:174,927,0,1,2,28653,58816,5063,15,21,995
13.10.2024 12:44:29:177,928,0,1,2,28654,58818,5064,16,19,994
13.10.2024 12:44:29:180,929,0,1,2,28653,58819,5067,15,18,995
13.10.2024 12:44:29:183,930,0,1,2,28654,58817,5066,18,23,997
13.10.2024 12:44:29:187,931,0,1,2,28651,58815,5064,16,22,999
13.10.2024 12:44:29:190,932,0,1,2,28654,58819,5067,20,21,998
13.10.2024 12:44:29:193,933,0,1,2,28653,58817,5065,20,21,998
13.10.2024 12:44:29:196,934,0,1,2,28656,58815,5066,19,19,1000
13.10.2024 12:44:29:200,935,0,1,2,28652,58817,5065,16,21,993
13.10.2024 12:44:29:203,936,0,1,2,28653,58815,5063,22,24,995
13.10.2024 12:44:29:206,937,0,1,2,28653,58819,5066,17,19,996
13.10.2024 12:44:29:209,938,0,1,2,28655,58817,5067,21,22,999
13.10.2024 12:44:29:213,939,0,1,2,28657,58816,5067,18,20,996
13.10.2024 12:44:29:216,940,0,1,2,28654,58817,5064,20,23,999
13.10.2024 12:44:29:219,941,0,1,2,28655,58821,5066,18,25,993
13.10.2024 12:44:29:222,942,0,1,2,28649,58817,5065,16,21,1060
13.10.2024 12:44:29:226,943,0,1,2,28657,58821,5065,22,21,999
13.10.2024 12:44:29:229,944,0,1,2,28655,58823,5065,16,24,997
13.10.2024 12:44:29:232,945,0,1,2,28655,58819,5065,19,24,993
13.10.2024 12:44:29:235,946,0,1,2,28659,58819,5065,15,24,992
13.10.2024 12:44:29:238,947,0,1,2,28653,58817,5066,19,23,998
13.10.2024 12:44:29:242,948,0,1,2,28654,58817,5064,20,26,994
13.10.2024 12:44:29:245,949,0,1,2,28654,58815,5066,14,25,994
13.10.2024 12:44:29:248,950,0,1,2,28657,58815,5065,15,24,1002
13.10.2024 12:44:29:251,951,0,1,2,28653,58814,5065,22,24,995
13.10.2024 12:44:29:255,952,0,1,2,28651,58818,5065,20,24,993
13.10.2024 12:44:29:258,953,0,1,2,28654,58814,5065,18,23,993
13.10.2024 12:44:29:261,954,0,1,2,28657,58817,5064,15,25,998
13.10.2024 12:44:29:264,955,0,1,2,28651,58815,5066,15,19,994
13.10.2024 12:44:29:268,956,0,1,2,28657,58816,5066,16,25,994
13.10.2024 12:44:29:271,957,0,1,2,28658,58817,5068,16,27,997
13.10.2024 12:44:29:274,958,0,1,2,28654,58813,5065,20,24,1001
13.10.2024 12:44:29:277,959,0,1,2,28652,58814,5065,14,28,993
13.10.2024 12:44:29:281,960,0,1,2,28652,58815,5063,15,20,998
13.10.2024 12:44:29:284,961,0,1,2,28657,58818,5065,12,24,995
13.10.2024 12:44:29:287,962,0,1,2,28652,58815,5064,15,23,995
13.10.2024 12:44:29:290,963,0,1,2,28656,58813,5064,18,22,997
13.10.2024 12:44:29:294,964,0,1,2,28658,58817,5063,12,22,1000
13.10.2024 12:44:29:297,965,0,1,2,28655,58817,5064,11,24,997
13.10.2024 12:44:29:300,966,0,1,2,28651,58815,5064,18,24,997
13.10.2024 12:44:29:303,967,0,1,2,28653,58816,5065,17,23,993
13.10.2024 12:44:29:307,968,0,1,2,28652,58814,5066,17,20,996
13.10.2024 12:44:29:310,969,0,1,2,28657,58816,5063,19,24,997
13.10.2024 12:44:29:313,970,0,1,2,28654,58820,5065,18,23,1000
13.10.2024 12:44:29:316,971,0,1,2,28649,58817,5065,19,20,992
13.10.2024 12:44:29:320,972,0,1,2,28656,58815,5065,22,26,996
13.10.2024 12:44:29:323,973,0,1,2,28654,58819,5065,19,25,997
13.10.2024 12:44:29:326,974,0,1,2,28649,58814,5065,16,24,999
13.10.2024 12:44:29:329,975,0,1,2,28659,58818,5064,17,17,993
13.10.2024 12:44:29:333,976,0,1,2,28652,58814,5066,20,25,999
13.10.2024 12:44:29:336,977,0,1,2,28658,58820,5067,20,24,996
13.10.2024 12:44:29:339,978,0,1,2,28652,58818,5065,21,22,995
13.10.2024 12:44:29:342,979,0,1,2,28658,58823,5064,21,22,995
13.10.2024 12:44:29:346,980,0,1,2,28656,58819,5065,23,23,995
13.10.2024 12:44:29:349,981,0,1,2,28654,58817,5066,23,24,996
13.10.2024 12:44:29:352,982,0,1,2,28654,58814,5065,19,25,994
13.10.2024 12:44:29:355,983,0,1,2,28655,58815,5065,21,27,995
13.10.2024 12:44:29:359,984,0,1,2,28652,58816,5065,18,22,996
13.10.2024 12:44:29:362,985,0,1,2,28653,58814,5065,21,24,997
13.10.2024 12:44:29:365,986,0,1,2,28653,58812,5065,14,26,993
13.10.2024 12:44:29:368,987,0,1,2,28655,58817,5066,16,25,996
13.10.2024 12:44:29:371,988,0,1,2,28652,58815,5064,14,24,1001
13.10.2024 12:44:29:375,989,0,1,2,28652,58815,5066,15,21,995
13.10.2024 12:44:29:378,990,0,1,2,28654,58816,5063,16,20,996
13.10.2024 12:44:29:381,991,0,1,2,28654,58818,5064,14,22,996
13.10.2024 12:44:29:384,992,0,1,2,28655,58810,5064,17,25,997
13.10.2024 12:44:29:388,993,0,1,2,28655,58819,5064,13,24,996
13.10.2024 12:44:29:391,994,0,1,2,28650,58815,5063,14,22,999
13.10.2024 12:44:29:394,995,0,1,2,28648,58812,5066,16,21,999
13.10.2024 12:44:29:397,996,0,1,2,28653,58820,5066,15,19,991
13.10.2024 12:44:29:401,997,0,1,2,28651,58815,5065,17,23,995
13.10.2024 12:44:29:404,998,0,1,2,28660,58819,5065,16,22,997
13.10.2024 12:44:29:407,999,0,1,2,28649,58812,5065,17,21,997
13.10.2024 12:44:29:410,1000,0,1,2,28653,58812,5066,17,27,995
13.10.2024 12:44:29:414,1001,0,1,2,28653,58815,5064,18,21,999
13.10.2024 12:44:29:417,1002,0,1,2,28654,58820,5064,19,25,990
13.10.2024 12:44:29:420,1003,0,1,2,28658,58812,5065,19,23,992
13.10.2024 12:44:29:423,1004,0,1,2,28651,58815,5065,18,23,995
13.10.2024 12:44:29:427,1005,0,1,2,28653,58815,5065,17,21,993
13.10.2024 12:44:29:430,1006,0,1,2,28655,58814,5065,17,22,993
13.10.2024 12:44:29:433,1007,0,1,2,28649,58817,5067,16,22,997
13.10.2024 12:44:29:436,1008,0,1,2,28654,58813,5065,17,22,993
13.10.2024 12:44:29:440,1009,0,1,2,28654,58813,5065,22,18,994
13.10.2024 12:44:29:443,1010,0,1,2,28650,58815,5065,17,19,996
13.10.2024 12:44:29:446,1011,0,1,2,28650,58815,5068,23,16,997
13.10.2024 12:44:29:449,1012,0,1,2,28659,58812,5066,17,21,994
13.10.2024 12:44:29:453,1013,0,1,2,28653,58818,5067,20,20,994
13.10.2024 12:44:29:456,1014,0,1,2,28655,58814,5064,15,17,999
13.10.2024 12:44:29:459,1015,0,1,2,28653,58805,5065,21,26,999
13.10.2024 12:44:29:462,1016,0,1,2,28655,58823,5066,18,23,992
13.10.2024 12:44:29:466,1017,0,1,2,28648,58805,5064,17,22,1002
13.10.2024 12:44:29:469,1018,0,1,2,28657,58820,5067,17,22,1002
13.10.2024 12:44:29:472,1019,0,1,2,28650,58803,5065,19,23,1000
13.10.2024 12:44:29:475,1020,0,1,2,28651,58812,5065,13,24,991
13.10.2024 12:44:29:479,1021,0,1,2,28657,58816,5063,17,24,991
13.10.2024 12:44:29:482,1022,0,1,2,28650,58811,5064,13,23,991
13.10.2024 12:44:29:485,1023,0,1,2,28653,58819,5067,14,25,998
13.10.2024 12:44:29:488,1024,0,1,2,28650,58813,5067,19,24,997
13.10.2024 12:44:29:492,1025,0,1,2,28654,58815,5065,19,24,997
13.10.2024 12:44:29:495,1026,0,1,2,28655,58810,5066,17,25,997
13.10.2024 12:44:29:498,1027,0,1,2,28657,58817,5064,18,23,995
13.10.2024 12:44:29:501,1028,0,1,2,28651,58808,5065,18,27,1001
13.10.2024 12:44:29:504,1029,0,1,2,28648,58810,5065,15,23,994
13.10.2024 12:44:29:508,1030,0,1,2,28651,58811,5065,15,27,1001
13.10.2024 12:44:29:511,1031,0,1,2,28652,58812,5064,14,26,996
13.10.2024 12:44:29:514,1032,0,1,2,28651,58810,5065,20,30,996
13.10.2024 12:44:29:517,1033,0,1,2,28655,58811,5065,16,19,994
13.10.2024 12:44:29:521,1034,0,1,2,28648,58811,5064,14,28,995
13.10.2024 12:44:29:524,1035,0,1,2,28650,58814,5063,16,22,994
13.10.2024 12:44:29:527,1036,0,1,2,28655,58815,5064,16,24,992
13.10.2024 12:44:29:530,1037,0,1,2,28656,58816,5066,15,21,998
13.10.2024 12:44:29:534,1038,0,1,2,28653,58811,5067,13,20,993
13.10.2024 12:44:29:537,1039,0,1,2,28653,58814,5069,14,23,993
13.10.2024 12:44:29:540,1040,0,1,2,28651,58813,5065,16,25,991
13.10.2024 12:44:29:543,1041,0,1,2,28654,58812,5065,14,24,995
13.10.2024 12:44:29:547,1042,0,1,2,28656,58809,5064,16,25,992
13.10.2024 12:44:29:550,1043,0,1,2,28651,58813,5065,18,25,991
13.10.2024 12:44:29:553,1044,0,1,2,28647,58808,5066,16,24,998
13.10.2024 12:44:29:556,1045,0,1,2,28655,58820,5065,12,23,997
13.10.2024 12:44:29:560,1046,0,1,2,28652,58810,5065,18,28,998
13.10.2024 12:44:29:563,1047,0,1,2,28651,58818,5064,16,26,993
13.10.2024 12:44:29:566,1048,0,1,2,28649,58811,5065,16,26,993
13.10.2024 12:44:29:569,1049,0,1,2,28648,58812,5066,17,24,990
13.10.2024 12:44:29:573,1050,0,1,2,28655,58814,5064,17,22,999
13.10.2024 12:44:29:576,1051,0,1,2,28651,58809,5063,25,23,998
13.10.2024 12:44:29:579,1052,0,1,2,28655,58812,5065,21,23,998
13.10.2024 12:44:29:582,1053,0,1,2,28653,58812,5065,19,21,998
13.10.2024 12:44:29:586,1054,0,1,2,28650,58812,5063,18,22,999
13.10.2024 12:44:29:589,1055,0,1,2,28653,58814,5065,18,26,997
13.10.2024 12:44:29:592,1056,0,1,2,28652,58813,5065,15,27,995
13.10.2024 12:44:29:595,1057,0,1,2,28657,58816,5064,13,21,998
13.10.2024 12:44:29:599,1058,0,1,2,28652,58814,5065,21,21,1001
13.10.2024 12:44:29:602,1059,0,1,2,28655,58813,5067,20,21,995
13.10.2024 12:44:29:605,1060,0,1,2,28647,58812,5063,17,23,997
13.10.2024 12:44:29:608,1061,0,1,2,28655,58809,5065,21,26,1001
13.10.2024 12:44:29:612,1062,0,1,2,28649,58812,5064,14,24,998
13.10.2024 12:44:29:615,1063,0,1,2,28648,58812,5066,14,24,998
13.10.2024 12:44:29:618,1064,0,1,2,28649,58813,5067,20,21,999
13.10.2024 12:44:29:621,1065,0,1,2,28650,58813,5064,15,26,994
13.10.2024 12:44:29:625,1066,0,1,2,28647,58809,5064,18,23,996
13.10.2024 12:44:29:628,1067,0,1,2,28649,58812,5064,12,26,999
13.10.2024 12:44:29:631,1068,0,1,2,28651,58808,5065,14,20,995
13.10.2024 12:44:29:634,1069,0,1,2,28655,58810,5066,18,22,996
13.10.2024 12:44:29:637,1070,0,1,2,28648,58809,5065,14,23,991
13.10.2024 12:44:29:641,1071,0,1,2,28648,58813,5063,15,20,1001
13.10.2024 12:44:29:644,1072,0,1,2,28649,58811,5064,16,16,989
13.10.2024 12:44:29:647,1073,0,1,2,28650,58814,5064,13,20,992
13.10.2024 12:44:29:650,1074,0,1,2,28652,58813,5064,16,25,991
13.10.2024 12:44:29:654,1075,0,1,2,28649,58813,5066,16,18,996
13.10.2024 12:44:29:657,1076,0,1,2,28654,58806,5065,16,25,996
13.10.2024 12:44:29:660,1077,0,1,2,28653,58811,5063,17,30,999
13.10.2024 12:44:29:663,1078,0,1,2,28652,58814,5065,17,30,999
13.10.2024 12:44:29:667,1079,0,1,2,28649,58804,5065,17,25,1000
13.10.2024 12:44:29:670,1080,0,1,2,28653,58813,5064,16,20,998
13.10.2024 12:44:29:673,1081,0,1,2,28655,58808,5064,13,22,997
13.10.2024 12:44:29:676,1082,0,1,2,28648,58812,5065,21,24,993
13.10.2024 12:44:29:680,1083,0,1,2,28649,58809,5063,16,19,998
13.10.2024 12:44:29:683,1084,0,1,2,28653,58809,5066,20,26,996
13.10.2024 12:44:29:686,1085,0,1,2,28650,58813,5063,15,22,994
13.10.2024 12:44:29:689,1086,0,1,2,28652,58810,5065,14,18,1000
13.10.2024 12:44:29:693,1087,0,1,2,28652,58812,5066,20,24,997
13.10.2024 12:44:29:696,1088,0,1,2,28650,58811,5064,18,24,993
13.10.2024 12:44:29:699,1089,0,1,2,28649,58812,5065,17,24,995
13.10.2024 12:44:29:702,1090,0,1,2,28651,58809,5064,17,18,996
13.10.2024 12:44:29:706,1091,0,1,2,28650,58811,5063,18,24,997
13.10.2024 12:44:29:709,1092,0,1,2,28652,58811,5066,16,20,994
13.10.2024 12:44:29:712,1093,0,1,2,28650,58815,5064,16,20,994
13.10.2024 12:44:29:715,1094,0,1,2,28651,58812,5064,15,25,997
13.10.2024 12:44:29:719,1095,0,1,2,28657,58813,5064,20,23,995
13.10.2024 12:44:29:722,1096,0,1,2,28651,58811,5064,18,24,996
13.10.2024 12:44:29:725,1097,0,1,2,28655,58811,5064,16,22,998
13.10.2024 12:44:29:728,1098,0,1,2,28648,58812,5065,16,22,994
13.10.2024 12:44:29:732,1099,0,1,2,28650,58809,5065,19,24,997
13.10.2024 12:44:29:735,1100,0,1,2,28651,58811,5065,16,21,995
13.10.2024 12:44:29:738,1101,0,1,2,28652,58809,5064,18,18,994
13.10.2024 12:44:29:741,1102,0,1,2,28647,58810,5064,17,21,998
13.10.2024 12:44:29:745,1103,0,1,2,28653,58812,5066,15,19,993
13.10.2024 12:44:29:748,1104,0,1,2,28651,58808,5065,19,19,998
13.10.2024 12:44:29:751,1105,0,1,2,28650,58813,5066,15,25,997
13.10.2024 12:44:29:754,1106,0,1,2,28654,58811,5064,18,20,997
13.10.2024 12:44:29:758,1107,0,1,2,28650,58810,5065,20,22,995
13.10.2024 12:44:29:761,1108,0,1,2,28653,58811,5066,20,22,995
13.10.2024 12:44:29:764,1109,0,1,2,28647,58807,5065,13,25,997
13.10.2024 12:44:29:767,1110,0,1,2,28648,58813,5066,16,24,997
13.10.2024 12:44:29:770,1111,0,1,2,28651,58808,5066,15,25,993
13.10.2024 12:44:29:774,1112,0,1,2,28649,58813,5066,18,27,992
13.10.2024 12:44:29:777,1113,0,1,2,28653,58806,5066,13,25,995
13.10.2024 12:44:29:780,1114,0,1,2,28649,58810,5065,17,27,994
13.10.2024 12:44:29:783,1115,0,1,2,28648,58811,5065,20,26,998
13.10.2024 12:44:29:787,1116,0,1,2,28653,58810,5066,18,25,994
13.10.2024 12:44:29:790,1117,0,1,2,28650,58808,5065,18,23,996
13.10.2024 12:44:29:793,1118,0,1,2,28655,58809,5066,16,25,995
13.10.2024 12:44:29:796,1119,0,1,2,28648,58809,5066,16,22,995
13.10.2024 12:44:29:800,1120,0,1,2,28649,58809,5064,17,22,996
13.10.2024 12:44:29:803,1121,0,1,2,28652,58810,5066,21,20,994
13.10.2024 12:44:29:806,1122,0,1,2,28650,58811,5066,21,25,994
13.10.2024 12:44:29:809,1123,0,1,2,28649,58807,5064,21,25,994
13.10.2024 12:44:29:813,1124,0,1,2,28654,58810,5065,16,24,997
13.10.2024 12:44:29:816,1125,0,1,2,28652,58809,5065,16,28,993
13.10.2024 12:44:29:819,1126,0,1,2,28647,58813,5066,17,22,994
13.10.2024 12:44:29:822,1127,0,1,2,28649,58814,5064,18,24,993
13.10.2024 12:44:29:826,1128,0,1,2,28653,58815,5065,19,22,996
13.10.2024 12:44:29:829,1129,0,1,2,28645,58812,5066,20,26,1000
13.10.2024 12:44:29:832,1130,0,1,2,28653,58811,5066,17,19,993
13.10.2024 12:44:29:835,1131,0,1,2,28654,58811,5066,15,28,996
13.10.2024 12:44:29:839,1132,0,1,2,28652,58809,5065,19,25,998
13.10.2024 12:44:29:842,1133,0,1,2,28645,58811,5064,18,20,995
13.10.2024 12:44:29:845,1134,0,1,2,28650,58809,5066,15,25,996
13.10.2024 12:44:29:848,1135,0,1,2,28649,58812,5064,16,21,997
13.10.2024 12:44:29:852,1136,0,1,2,28646,58810,5065,23,22,996
13.10.2024 12:44:29:855,1137,0,1,2,28647,58813,5065,20,22,992
13.10.2024 12:44:29:858,1138,0,1,2,28649,58813,5065,20,22,992
13.10.2024 12:44:29:861,1139,0,1,2,28648,58810,5064,16,24,994
13.10.2024 12:44:29:865,1140,0,1,2,28653,58811,5067,20,21,997
13.10.2024 12:44:29:868,1141,0,1,2,28652,58811,5065,17,24,996
13.10.2024 12:44:29:871,1142,0,1,2,28651,58810,5064,15,26,999
13.10.2024 12:44:29:874,1143,0,1,2,28650,58811,5065,19,25,996
13.10.2024 12:44:29:878,1144,0,1,2,28651,58812,5065,17,20,993
13.10.2024 12:44:29:881,1145,0,1,2,28650,58812,5064,19,23,996
13.10.2024 12:44:29:884,1146,0,1,2,28650,58808,5064,18,25,998
13.10.2024 12:44:29:887,1147,0,1,2,28651,58814,5064,16,21,993
13.10.2024 12:44:29:891,1148,0,1,2,28653,58811,5065,16,19,996
13.10.2024 12:44:29:894,1149,0,1,2,28651,58813,5066,19,20,995
13.10.2024 12:44:29:897,1150,0,1,2,28654,58811,5065,20,23,998
13.10.2024 12:44:29:900,1151,0,1,2,28648,58810,5067,13,24,998
13.10.2024 12:44:29:903,1152,0,1,2,28653,58810,5067,15,25,998
13.10.2024 12:44:29:907,1153,0,1,2,28651,58808,5066,15,25,998
13.10.2024 12:44:29:910,1154,0,1,2,28654,58807,5066,12,22,996
13.10.2024 12:44:29:913,1155,0,1,2,28651,58811,5064,15,23,995
13.10.2024 12:44:29:916,1156,0,1,2,28652,58809,5063,15,25,997
13.10.2024 12:44:29:920,1157,0,1,2,28657,58806,5064,17,21,996
13.10.2024 12:44:29:923,1158,0,1,2,28649,58811,5066,17,24,994
13.10.2024 12:44:29:926,1159,0,1,2,28650,58810,5065,21,28,992
13.10.2024 12:44:29:929,1160,0,1,2,28650,58810,5065,15,21,994
13.10.2024 12:44:29:933,1161,0,1,2,28650,58809,5065,13,23,996
13.10.2024 12:44:29:936,1162,0,1,2,28653,58813,5065,12,23,995
13.10.2024 12:44:29:939,1163,0,1,2,28649,58812,5063,12,23,995
13.10.2024 12:44:29:942,1164,0,1,2,28654,58808,5064,17,19,998
13.10.2024 12:44:29:946,1165,0,1,2,28650,58809,5065,16,22,995
13.10.2024 12:44:29:949,1166,0,1,2,28647,58809,5064,20,22,996
13.10.2024 12:44:29:952,1167,0,1,2,28649,58807,5065,18,23,999
13.10.2024 12:44:29:955,1168,0,1,2,28648,58807,5064,18,23,999
13.10.2024 12:44:29:959,1169,0,1,2,28650,58808,5067,14,23,1000
13.10.2024 12:44:29:962,1170,0,1,2,28652,58812,5064,19,21,995
13.10.2024 12:44:29:965,1171,0,1,2,28647,58808,5064,15,25,996
13.10.2024 12:44:29:968,1172,0,1,2,28652,58811,5065,18,25,992
13.10.2024 12:44:29:972,1173,0,1,2,28653,58812,5066,14,23,990
13.10.2024 12:44:29:975,1174,0,1,2,28650,58805,5064,17,23,997
13.10.2024 12:44:29:978,1175,0,1,2,28651,58812,5064,19,26,999
13.10.2024 12:44:29:981,1176,0,1,2,28649,58808,5065,18,27,993
13.10.2024 12:44:29:985,1177,0,1,2,28651,58809,5066,19,24,997
13.10.2024 12:44:29:988,1178,0,1,2,28649,58809,5068,18,19,997
13.10.2024 12:44:29:991,1179,0,1,2,28653,58806,5065,16,24,998
13.10.2024 12:44:29:994,1180,0,1,2,28653,58807,5065,17,24,997
13.10.2024 12:44:29:998,1181,0,1,2,28649,58809,5065,17,18,996
13.10.2024 12:44:30:1,1182,0,1,2,28651,58808,5065,13,24,997
13.10.2024 12:44:30:4,1183,0,1,2,28651,58811,5065,13,24,997
13.10.2024 12:44:30:7,1184,0,1,2,28652,58813,5066,19,22,994
13.10.2024 12:44:30:11,1185,0,1,2,28649,58808,5067,17,22,997
13.10.2024 12:44:30:14,1186,0,1,2,28651,58810,5064,19,17,996
13.10.2024 12:44:30:17,1187,0,1,2,28649,58809,5063,22,22,999
13.10.2024 12:44:30:20,1188,0,1,2,28651,58810,5065,16,26,993
13.10.2024 12:44:30:24,1189,0,1,2,28652,58808,5064,21,25,997
13.10.2024 12:44:30:27,1190,0,1,2,28648,58809,5066,19,20,995
13.10.2024 12:44:30:30,1191,0,1,2,28651,58811,5065,20,27,999
13.10.2024 12:44:30:33,1192,0,1,2,28652,58811,5064,16,26,995
13.10.2024 12:44:30:36,1193,0,1,2,28654,58809,5064,17,25,991
13.10.2024 12:44:30:40,1194,0,1,2,28649,58806,5064,19,22,1000
13.10.2024 12:44:30:43,1195,0,1,2,28650,58809,5067,18,24,991
13.10.2024 12:44:30:46,1196,0,1,2,28654,58807,5066,23,19,996
13.10.2024 12:44:30:49,1197,0,1,2,28653,58810,5066,19,26,997
13.10.2024 12:44:30:53,1198,0,1,2,28652,58808,5066,19,26,997
13.10.2024 12:44:30:56,1199,0,1,2,28650,58806,5065,18,20,998
13.10.2024 12:44:30:59,1200,0,1,2,28648,58808,5064,19,23,995
13.10.2024 12:44:30:62,1201,0,1,2,28655,58809,5063,17,25,997
13.10.2024 12:44:30:66,1202,0,1,2,28650,58808,5065,18,25,996
13.10.2024 12:44:30:69,1203,0,1,2,28651,58810,5063,18,26,993
13.10.2024 12:44:30:72,1204,0,1,2,28651,58805,5064,22,25,995
13.10.2024 12:44:30:75,1205,0,1,2,28653,58810,5066,18,26,995
13.10.2024 12:44:30:79,1206,0,1,2,28649,58807,5065,19,24,995
13.10.2024 12:44:30:82,1207,0,1,2,28649,58810,5064,14,22,1003
13.10.2024 12:44:30:85,1208,0,1,2,28651,58810,5065,18,25,998
13.10.2024 12:44:30:88,1209,0,1,2,28653,58812,5066,18,25,998
13.10.2024 12:44:30:92,1210,0,1,2,28650,58811,5062,16,23,997
13.10.2024 12:44:30:95,1211,0,1,2,28647,58809,5066,10,23,1000
13.10.2024 12:44:30:98,1212,0,1,2,28652,58810,5065,20,27,994
13.10.2024 12:44:30:101,1213,0,1,2,28651,58810,5068,20,27,994
13.10.2024 12:44:30:105,1214,0,1,2,28649,58805,5064,20,20,998
13.10.2024 12:44:30:108,1215,0,1,2,28653,58807,5064,16,25,995
13.10.2024 12:44:30:111,1216,0,1,2,28647,58807,5065,14,15,1001
13.10.2024 12:44:30:114,1217,0,1,2,28649,58805,5064,19,23,998
13.10.2024 12:44:30:118,1218,0,1,2,28648,58809,5066,15,23,996
13.10.2024 12:44:30:121,1219,0,1,2,28648,58809,5066,20,20,998
13.10.2024 12:44:30:124,1220,0,1,2,28649,58811,5066,21,24,993
13.10.2024 12:44:30:127,1221,0,1,2,28648,58811,5065,14,24,997
13.10.2024 12:44:30:131,1222,0,1,2,28649,58810,5065,17,20,993
13.10.2024 12:44:30:134,1223,0,1,2,28649,58812,5064,12,20,995
13.10.2024 12:44:30:137,1224,0,1,2,28648,58811,5065,16,21,994
13.10.2024 12:44:30:140,1225,0,1,2,28645,58809,5063,15,22,997
13.10.2024 12:44:30:144,1226,0,1,2,28651,58809,5065,18,20,996
13.10.2024 12:44:30:147,1227,0,1,2,28645,58807,5066,16,19,994
13.10.2024 12:44:30:150,1228,0,1,2,28652,58809,5068,13,19,996
13.10.2024 12:44:30:153,1229,0,1,2,28646,58810,5064,12,22,996
13.10.2024 12:44:30:157,1230,0,1,2,28648,58810,5065,19,21,998
13.10.2024 12:44:30:160,1231,0,1,2,28648,58807,5064,16,23,997
13.10.2024 12:44:30:163,1232,0,1,2,28648,58808,5066,16,24,997
13.10.2024 12:44:30:166,1233,0,1,2,28650,58810,5065,15,25,996
13.10.2024 12:44:30:169,1234,0,1,2,28652,58807,5065,15,23,999
13.10.2024 12:44:30:173,1235,0,1,2,28654,58806,5065,16,21,992
13.10.2024 12:44:30:176,1236,0,1,2,28651,58811,5064,21,26,995
13.10.2024 12:44:30:179,1237,0,1,2,28653,58806,5064,17,24,997
13.10.2024 12:44:30:182,1238,0,1,2,28647,58805,5067,16,24,998
13.10.2024 12:44:30:186,1239,0,1,2,28649,58801,5064,17,23,1001
13.10.2024 12:44:30:189,1240,0,1,2,28653,58808,5066,18,30,991
13.10.2024 12:44:30:192,1241,0,1,2,28650,58806,5066,20,21,998
13.10.2024 12:44:30:195,1242,0,1,2,28646,58795,5066,19,27,1003
13.10.2024 12:44:30:199,1243,0,1,2,28657,58816,5065,18,20,988
13.10.2024 12:44:30:202,1244,0,1,2,28650,58794,5064,15,27,1003
13.10.2024 12:44:30:205,1245,0,1,2,28653,58816,5067,15,27,990
13.10.2024 12:44:30:208,1246,0,1,2,28650,58804,5066,17,24,999
13.10.2024 12:44:30:212,1247,0,1,2,28650,58809,5064,11,24,996
13.10.2024 12:44:30:215,1248,0,1,2,28659,58810,5065,16,24,997
13.10.2024 12:44:30:218,1249,0,1,2,28647,58803,5065,15,23,999
13.10.2024 12:44:30:221,1250,0,1,2,28653,58808,5065,12,18,995
13.10.2024 12:44:30:225,1251,0,1,2,28646,58804,5065,16,22,1000
13.10.2024 12:44:30:228,1252,0,1,2,28647,58807,5065,17,21,996
13.10.2024 12:44:30:231,1253,0,1,2,28648,58804,5063,17,25,995
13.10.2024 12:44:30:234,1254,0,1,2,28648,58812,5065,18,19,994
13.10.2024 12:44:30:238,1255,0,1,2,28649,58807,5065,18,19,994
13.10.2024 12:44:30:241,1256,0,1,2,28649,58806,5064,16,20,995
13.10.2024 12:44:30:244,1257,0,1,2,28646,58808,5065,18,20,1000
13.10.2024 12:44:30:247,1258,0,1,2,28649,58807,5065,16,17,994
13.10.2024 12:44:30:251,1259,0,1,2,28645,58809,5064,14,21,1000
13.10.2024 12:44:30:254,1260,0,1,2,28650,58805,5064,17,21,995
13.10.2024 12:44:30:257,1261,0,1,2,28649,58809,5064,20,19,996
13.10.2024 12:44:30:260,1262,0,1,2,28650,58804,5066,15,23,994
13.10.2024 12:44:30:264,1263,0,1,2,28650,58809,5064,21,23,998
13.10.2024 12:44:30:267,1264,0,1,2,28644,58805,5065,16,20,998
13.10.2024 12:44:30:270,1265,0,1,2,28652,58813,5064,15,21,997
13.10.2024 12:44:30:273,1266,0,1,2,28645,58798,5063,18,23,1004
13.10.2024 12:44:30:277,1267,0,1,2,28651,58815,5065,12,22,993
13.10.2024 12:44:30:280,1268,0,1,2,28653,58803,5065,14,21,996
13.10.2024 12:44:30:283,1269,0,1,2,28651,58809,5067,18,24,991
13.10.2024 12:44:30:286,1270,0,1,2,28651,58807,5066,17,24,989
13.10.2024 12:44:30:290,1271,0,1,2,28650,58805,5066,14,23,998
13.10.2024 12:44:30:293,1272,0,1,2,28650,58809,5066,18,19,997
13.10.2024 12:44:30:296,1273,0,1,2,28651,58803,5066,18,26,1003
13.10.2024 12:44:30:299,1274,0,1,2,28649,58807,5065,18,22,994
13.10.2024 12:44:30:302,1275,0,1,2,28652,58804,5065,22,26,999
13.10.2024 12:44:30:306,1276,0,1,2,28649,58806,5062,17,23,997
13.10.2024 12:44:30:309,1277,0,1,2,28645,58808,5066,20,24,994
13.10.2024 12:44:30:312,1278,0,1,2,28648,58809,5065,15,22,993
13.10.2024 12:44:30:315,1279,0,1,2,28650,58805,5064,19,26,996
13.10.2024 12:44:30:319,1280,0,1,2,28658,58810,5065,18,27,995
13.10.2024 12:44:30:322,1281,0,1,2,28650,58806,5065,17,26,993
13.10.2024 12:44:30:325,1282,0,1,2,28652,58807,5064,18,27,994
13.10.2024 12:44:30:328,1283,0,1,2,28648,58806,5065,19,25,993
13.10.2024 12:44:30:332,1284,0,1,2,28647,58801,5066,19,24,997
13.10.2024 12:44:30:335,1285,0,1,2,28647,58805,5065,20,25,995
13.10.2024 12:44:30:338,1286,0,1,2,28652,58803,5065,21,24,1001
13.10.2024 12:44:30:341,1287,0,1,2,28649,58807,5064,14,26,998
13.10.2024 12:44:30:345,1288,0,1,2,28648,58806,5066,19,25,998
13.10.2024 12:44:30:348,1289,0,1,2,28653,58805,5067,16,27,998
13.10.2024 12:44:30:351,1290,0,1,2,28648,58807,5064,13,29,995
13.10.2024 12:44:30:354,1291,0,1,2,28652,58806,5064,19,19,991
13.10.2024 12:44:30:358,1292,0,1,2,28649,58806,5065,16,22,996
13.10.2024 12:44:30:361,1293,0,1,2,28650,58804,5065,15,23,994
13.10.2024 12:44:30:364,1294,0,1,2,28651,58805,5065,18,23,995
13.10.2024 12:44:30:367,1295,0,1,2,28646,58806,5065,17,24,996
13.10.2024 12:44:30:371,1296,0,1,2,28652,58807,5065,17,24,997
13.10.2024 12:44:30:374,1297,0,1,2,28651,58802,5066,19,19,998
13.10.2024 12:44:30:377,1298,0,1,2,28655,58806,5066,15,22,992
13.10.2024 12:44:30:380,1299,0,1,2,28650,58802,5065,17,21,999
13.10.2024 12:44:30:384,1300,0,1,2,28652,58803,5067,20,23,996
13.10.2024 12:44:30:387,1301,0,1,2,28647,58804,5063,18,18,998
13.10.2024 12:44:30:390,1302,0,1,2,28643,58804,5066,15,17,997
13.10.2024 12:44:30:393,1303,0,1,2,28651,58804,5064,17,23,996
13.10.2024 12:44:30:397,1304,0,1,2,28649,58805,5066,18,24,996
13.10.2024 12:44:30:400,1305,0,1,2,28654,58804,5066,19,25,996
13.10.2024 12:44:30:403,1306,0,1,2,28649,58809,5066,17,23,994
13.10.2024 12:44:30:406,1307,0,1,2,28647,58805,5064,17,21,996
13.10.2024 12:44:30:410,1308,0,1,2,28650,58805,5063,18,23,997
13.10.2024 12:44:30:413,1309,0,1,2,28650,58803,5065,19,22,997
13.10.2024 12:44:30:416,1310,0,1,2,28649,58805,5065,17,19,995
13.10.2024 12:44:30:419,1311,0,1,2,28651,58803,5063,14,24,996
13.10.2024 12:44:30:423,1312,0,1,2,28653,58805,5066,12,28,993
13.10.2024 12:44:30:426,1313,0,1,2,28643,58809,5066,19,22,994
13.10.2024 12:44:30:429,1314,0,1,2,28646,58807,5064,17,25,997
13.10.2024 12:44:30:432,1315,0,1,2,28652,58806,5064,19,20,993
13.10.2024 12:44:30:435,1316,0,1,2,28654,58804,5064,19,22,995
13.10.2024 12:44:30:439,1317,0,1,2,28651,58803,5064,21,24,991
13.10.2024 12:44:30:442,1318,0,1,2,28647,58805,5066,15,21,995
13.10.2024 12:44:30:445,1319,0,1,2,28645,58803,5066,18,24,995
13.10.2024 12:44:30:448,1320,0,1,2,28647,58803,5064,16,23,995
13.10.2024 12:44:30:452,1321,0,1,2,28648,58806,5065,13,24,998
13.10.2024 12:44:30:455,1322,0,1,2,28650,58803,5064,13,20,996
13.10.2024 12:44:30:458,1323,0,1,2,28647,58799,5063,16,23,997
13.10.2024 12:44:30:461,1324,0,1,2,28649,58800,5065,18,23,999
13.10.2024 12:44:30:465,1325,0,1,2,28649,58804,5067,18,18,998
13.10.2024 12:44:30:468,1326,0,1,2,28647,58805,5066,21,23,994
13.10.2024 12:44:30:471,1327,0,1,2,28649,58806,5066,15,23,997
13.10.2024 12:44:30:474,1328,0,1,2,28653,58800,5065,20,24,999
13.10.2024 12:44:30:478,1329,0,1,2,28648,58804,5065,15,18,995
13.10.2024 12:44:30:481,1330,0,1,2,28648,58804,5066,16,19,994
13.10.2024 12:44:30:484,1331,0,1,2,28648,58804,5063,17,21,998
13.10.2024 12:44:30:487,1332,0,1,2,28648,58805,5064,20,17,993
13.10.2024 12:44:30:491,1333,0,1,2,28648,58804,5066,18,22,996
13.10.2024 12:44:30:494,1334,0,1,2,28648,58806,5066,16,24,998
13.10.2024 12:44:30:497,1335,0,1,2,28649,58802,5063,17,16,996
13.10.2024 12:44:30:500,1336,0,1,2,28644,58804,5066,16,22,1000
13.10.2024 12:44:30:504,1337,0,1,2,28646,58802,5065,13,20,991
13.10.2024 12:44:30:507,1338,0,1,2,28647,58805,5066,19,23,996
13.10.2024 12:44:30:510,1339,0,1,2,28650,58804,5065,20,18,993
13.10.2024 12:44:30:513,1340,0,1,2,28648,58798,5064,15,21,995
13.10.2024 12:44:30:517,1341,0,1,2,28645,58806,5064,20,19,995
13.10.2024 12:44:30:520,1342,0,1,2,28646,58801,5063,20,22,999
13.10.2024 12:44:30:523,1343,0,1,2,28648,58803,5064,16,17,999
13.10.2024 12:44:30:526,1344,0,1,2,28652,58803,5066,21,24,995
13.10.2024 12:44:30:530,1345,0,1,2,28646,58806,5064,15,21,992
13.10.2024 12:44:30:533,1346,0,1,2,28647,58806,5066,16,24,994
13.10.2024 12:44:30:536,1347,0,1,2,28651,58804,5065,17,25,996
13.10.2024 12:44:30:539,1348,0,1,2,28650,58805,5065,19,24,998
13.10.2024 12:44:30:543,1349,0,1,2,28651,58804,5066,16,23,999
13.10.2024 12:44:30:546,1350,0,1,2,28647,58803,5065,14,18,999
13.10.2024 12:44:30:549,1351,0,1,2,28646,58808,5065,15,23,997
13.10.2024 12:44:30:552,1352,0,1,2,28649,58802,5063,18,25,996
13.10.2024 12:44:30:556,1353,0,1,2,28645,58801,5066,18,27,999
13.10.2024 12:44:30:559,1354,0,1,2,28648,58802,5064,18,29,1002
13.10.2024 12:44:30:562,1355,0,1,2,28646,58803,5063,16,23,996
13.10.2024 12:44:30:565,1356,0,1,2,28650,58800,5064,17,30,995
13.10.2024 12:44:30:568,1357,0,1,2,28651,58801,5065,15,24,994
13.10.2024 12:44:30:572,1358,0,1,2,28652,58804,5065,17,25,994
13.10.2024 12:44:30:575,1359,0,1,2,28646,58799,5063,17,22,994
13.10.2024 12:44:30:578,1360,0,1,2,28646,58807,5063,14,24,997
13.10.2024 12:44:30:581,1361,0,1,2,28645,58803,5064,18,26,993
13.10.2024 12:44:30:585,1362,0,1,2,28649,58797,5066,17,27,998
13.10.2024 12:44:30:588,1363,0,1,2,28650,58798,5065,17,22,995
13.10.2024 12:44:30:591,1364,0,1,2,28647,58804,5065,15,24,995
13.10.2024 12:44:30:594,1365,0,1,2,28650,58802,5066,16,27,998
13.10.2024 12:44:30:598,1366,0,1,2,28651,58804,5066,14,23,991
13.10.2024 12:44:30:601,1367,0,1,2,28645,58804,5065,17,23,998
13.10.2024 12:44:30:604,1368,0,1,2,28648,58805,5065,17,22,997
13.10.2024 12:44:30:607,1369,0,1,2,28644,58801,5065,19,22,995
13.10.2024 12:44:30:611,1370,0,1,2,28652,58799,5065,17,21,997
13.10.2024 12:44:30:614,1371,0,1,2,28651,58802,5066,18,23,995
13.10.2024 12:44:30:617,1372,0,1,2,28647,58801,5064,15,24,999
13.10.2024 12:44:30:620,1373,0,1,2,28646,58801,5065,15,21,994
13.10.2024 12:44:30:624,1374,0,1,2,28648,58801,5066,20,24,997
13.10.2024 12:44:30:627,1375,0,1,2,28645,58802,5063,15,25,1000
13.10.2024 12:44:30:630,1376,0,1,2,28649,58803,5064,14,19,997
13.10.2024 12:44:30:633,1377,0,1,2,28646,58801,5066,19,23,1000
13.10.2024 12:44:30:637,1378,0,1,2,28653,58805,5064,16,25,999
13.10.2024 12:44:30:640,1379,0,1,2,28652,58800,5064,17,22,997
13.10.2024 12:44:30:643,1380,0,1,2,28651,58801,5064,14,21,991
13.10.2024 12:44:30:646,1381,0,1,2,28649,58804,5064,18,28,993
13.10.2024 12:44:30:650,1382,0,1,2,28649,58800,5064,21,25,1000
13.10.2024 12:44:30:653,1383,0,1,2,28649,58800,5066,17,23,996
13.10.2024 12:44:30:656,1384,0,1,2,28651,58801,5064,18,24,999
13.10.2024 12:44:30:659,1385,0,1,2,28644,58802,5064,21,24,995
13.10.2024 12:44:30:663,1386,0,1,2,28647,58800,5063,16,23,996
13.10.2024 12:44:30:666,1387,0,1,2,28647,58802,5063,19,20,995
13.10.2024 12:44:30:669,1388,0,1,2,28644,58801,5065,19,20,998
13.10.2024 12:44:30:672,1389,0,1,2,28648,58804,5066,12,25,994
13.10.2024 12:44:30:676,1390,0,1,2,28653,58799,5064,17,20,992
13.10.2024 12:44:30:679,1391,0,1,2,28649,58802,5066,19,21,994
13.10.2024 12:44:30:682,1392,0,1,2,28651,58801,5065,19,27,994
13.10.2024 12:44:30:685,1393,0,1,2,28649,58801,5066,19,27,994
13.10.2024 12:44:30:689,1394,0,1,2,28646,58803,5067,24,22,995
13.10.2024 12:44:30:692,1395,0,1,2,28648,58801,5065,19,17,995
13.10.2024 12:44:30:695,1396,0,1,2,28647,58803,5064,15,23,996
13.10.2024 12:44:30:698,1397,0,1,2,28650,58802,5065,17,20,994
13.10.2024 12:44:30:701,1398,0,1,2,28646,58799,5065,18,25,996
13.10.2024 12:44:30:705,1399,0,1,2,28647,58801,5066,16,26,998
13.10.2024 12:44:30:708,1400,0,1,2,28644,58803,5066,13,21,1000
13.10.2024 12:44:30:711,1401,0,1,2,28649,58803,5065,19,23,997
13.10.2024 12:44:30:714,1402,0,1,2,28649,58805,5066,19,23,998
13.10.2024 12:44:30:718,1403,0,1,2,28649,58802,5066,21,24,995
13.10.2024 12:44:30:721,1404,0,1,2,28648,58797,5064,24,24,997
13.10.2024 12:44:30:724,1405,0,1,2,28646,58802,5062,14,24,995
13.10.2024 12:44:30:727,1406,0,1,2,28646,58802,5065,17,25,1000
13.10.2024 12:44:30:731,1407,0,1,2,28647,58807,5065,18,24,992
13.10.2024 12:44:30:734,1408,0,1,2,28649,58799,5065,18,22,995
13.10.2024 12:44:30:737,1409,0,1,2,28649,58805,5064,15,23,1001
13.10.2024 12:44:30:740,1410,0,1,2,28645,58805,5066,18,19,997
13.10.2024 12:44:30:744,1411,0,1,2,28645,58804,5064,16,22,999
13.10.2024 12:44:30:747,1412,0,1,2,28647,58802,5064,19,20,993
13.10.2024 12:44:30:750,1413,0,1,2,28645,58804,5065,17,20,995
13.10.2024 12:44:30:753,1414,0,1,2,28649,58802,5063,17,21,995
13.10.2024 12:44:30:757,1415,0,1,2,28648,58800,5065,21,20,992
13.10.2024 12:44:30:760,1416,0,1,2,28646,58798,5066,14,22,998
13.10.2024 12:44:30:763,1417,0,1,2,28648,58801,5066,17,30,998
13.10.2024 12:44:30:766,1418,0,1,2,28648,58801,5065,15,22,995
13.10.2024 12:44:30:770,1419,0,1,2,28647,58799,5064,20,20,996
13.10.2024 12:44:30:773,1420,0,1,2,28648,58801,5065,16,23,1000
13.10.2024 12:44:30:776,1421,0,1,2,28651,58802,5065,18,24,994
13.10.2024 12:44:30:779,1422,0,1,2,28652,58800,5066,19,23,992
13.10.2024 12:44:30:783,1423,0,1,2,28647,58799,5065,16,25,996
13.10.2024 12:44:30:786,1424,0,1,2,28648,58798,5062,18,20,996
13.10.2024 12:44:30:789,1425,0,1,2,28647,58800,5064,16,25,997
13.10.2024 12:44:30:792,1426,0,1,2,28646,58802,5063,16,24,994
13.10.2024 12:44:30:796,1427,0,1,2,28648,58801,5064,14,28,998
13.10.2024 12:44:30:799,1428,0,1,2,28647,58800,5065,16,26,994
13.10.2024 12:44:30:802,1429,0,1,2,28644,58802,5066,17,23,998
13.10.2024 12:44:30:805,1430,0,1,2,28647,58797,5065,15,24,996
13.10.2024 12:44:30:809,1431,0,1,2,28649,58800,5064,18,25,998
13.10.2024 12:44:30:812,1432,0,1,2,28648,58801,5066,15,27,992
13.10.2024 12:44:30:815,1433,0,1,2,28649,58796,5064,23,26,997
13.10.2024 12:44:30:818,1434,0,1,2,28647,58799,5064,18,26,992
13.10.2024 12:44:30:822,1435,0,1,2,28646,58801,5065,15,26,999
13.10.2024 12:44:30:825,1436,0,1,2,28649,58800,5065,18,21,990
13.10.2024 12:44:30:828,1437,0,1,2,28648,58802,5067,15,23,999
13.10.2024 12:44:30:831,1438,0,1,2,28642,58796,5066,21,22,997
13.10.2024 12:44:30:834,1439,0,1,2,28653,58800,5064,18,20,997
13.10.2024 12:44:30:838,1440,0,1,2,28647,58797,5064,15,24,994
13.10.2024 12:44:30:841,1441,0,1,2,28647,58802,5064,23,21,995
13.10.2024 12:44:30:844,1442,0,1,2,28650,58800,5066,20,23,998
13.10.2024 12:44:30:847,1443,0,1,2,28646,58799,5068,20,26,1003
13.10.2024 12:44:30:851,1444,0,1,2,28645,58801,5063,20,26,1003
13.10.2024 12:44:30:854,1445,0,1,2,28641,58798,5065,16,20,997
13.10.2024 12:44:30:857,1446,0,1,2,28649,58802,5066,20,22,992
13.10.2024 12:44:30:860,1447,0,1,2,28646,58801,5063,20,20,992
13.10.2024 12:44:30:864,1448,0,1,2,28645,58800,5065,16,21,996
13.10.2024 12:44:30:867,1449,0,1,2,28647,58803,5064,18,20,997
13.10.2024 12:44:30:870,1450,0,1,2,28655,58799,5065,21,24,996
13.10.2024 12:44:30:873,1451,0,1,2,28648,58804,5064,17,20,996
13.10.2024 12:44:30:877,1452,0,1,2,28649,58800,5063,18,26,997
13.10.2024 12:44:30:880,1453,0,1,2,28648,58802,5066,15,23,995
13.10.2024 12:44:30:883,1454,0,1,2,28645,58802,5063,22,22,994
13.10.2024 12:44:30:886,1455,0,1,2,28646,58802,5064,16,25,994
13.10.2024 12:44:30:890,1456,0,1,2,28647,58798,5065,20,20,995
13.10.2024 12:44:30:893,1457,0,1,2,28646,58803,5066,14,23,996
13.10.2024 12:44:30:896,1458,0,1,2,28647,58801,5065,17,22,997
13.10.2024 12:44:30:899,1459,0,1,2,28644,58800,5065,20,21,997
13.10.2024 12:44:30:903,1460,0,1,2,28651,58796,5064,14,22,999
13.10.2024 12:44:30:906,1461,0,1,2,28643,58800,5064,12,22,997
13.10.2024 12:44:30:909,1462,0,1,2,28650,58800,5063,13,23,997
13.10.2024 12:44:30:912,1463,0,1,2,28648,58802,5066,15,24,997
13.10.2024 12:44:30:916,1464,0,1,2,28647,58800,5065,21,23,994
13.10.2024 12:44:30:919,1465,0,1,2,28648,58795,5065,16,26,997
13.10.2024 12:44:30:922,1466,0,1,2,28650,58801,5064,16,22,996
13.10.2024 12:44:30:925,1467,0,1,2,28645,58797,5066,18,23,995
13.10.2024 12:44:30:929,1468,0,1,2,28645,58800,5064,15,25,995
13.10.2024 12:44:30:932,1469,0,1,2,28648,58797,5065,15,24,992
13.10.2024 12:44:30:935,1470,0,1,2,28643,58802,5062,14,22,996
13.10.2024 12:44:30:938,1471,0,1,2,28650,58799,5065,17,20,993
13.10.2024 12:44:30:942,1472,0,1,2,28649,58799,5067,14,26,993
13.10.2024 12:44:30:945,1473,0,1,2,28649,58798,5064,17,22,994
13.10.2024 12:44:30:948,1474,0,1,2,28652,58799,5066,17,24,1000
13.10.2024 12:44:30:951,1475,0,1,2,28644,58799,5064,19,20,997
13.10.2024 12:44:30:955,1476,0,1,2,28643,58798,5063,16,21,999
13.10.2024 12:44:30:958,1477,0,1,2,28646,58797,5064,16,26,995
13.10.2024 12:44:30:961,1478,0,1,2,28646,58801,5066,17,24,995
13.10.2024 12:44:30:964,1479,0,1,2,28645,58801,5065,11,24,1000
13.10.2024 12:44:30:967,1480,0,1,2,28649,58800,5066,18,23,998
13.10.2024 12:44:30:971,1481,0,1,2,28646,58799,5064,20,23,996
13.10.2024 12:44:30:974,1482,0,1,2,28649,58803,5064,18,18,990
13.10.2024 12:44:30:977,1483,0,1,2,28650,58802,5063,12,25,996
13.10.2024 12:44:30:980,1484,0,1,2,28644,58798,5065,22,21,997
13.10.2024 12:44:30:984,1485,0,1,2,28646,58802,5066,22,21,997
13.10.2024 12:44:30:987,1486,0,1,2,28648,58802,5064,12,23,995
13.10.2024 12:44:30:990,1487,0,1,2,28642,58802,5066,17,23,995
13.10.2024 12:44:30:993,1488,0,1,2,28643,58797,5064,15,23,997
13.10.2024 12:44:30:997,1489,0,1,2,28645,58799,5065,16,27,994
13.10.2024 12:44:31:0,1490,0,1,2,28645,58798,5064,16,24,999
13.10.2024 12:44:31:3,1491,0,1,2,28644,58798,5063,18,19,997
13.10.2024 12:44:31:6,1492,0,1,2,28648,58801,5063,19,24,998
13.10.2024 12:44:31:10,1493,0,1,2,28642,58792,5064,18,19,1002
13.10.2024 12:44:31:13,1494,0,1,2,28645,58804,5066,19,23,996
13.10.2024 12:44:31:16,1495,0,1,2,28652,58800,5063,18,25,1004
13.10.2024 12:44:31:19,1496,0,1,2,28642,58795,5066,18,25,1004
13.10.2024 12:44:31:23,1497,0,1,2,28650,58811,5065,21,25,993
13.10.2024 12:44:31:26,1498,0,1,2,28645,58795,5064,19,24,996
13.10.2024 12:44:31:29,1499,0,1,2,28649,58803,5066,18,22,991
13.10.2024 12:44:31:32,1500,0,1,2,28644,58795,5065,19,24,996
13.10.2024 12:44:31:36,1501,0,1,2,28649,58799,5065,18,25,993
13.10.2024 12:44:31:39,1502,0,1,2,28646,58797,5064,21,27,997
13.10.2024 12:44:31:42,1503,0,1,2,28646,58794,5066,16,24,994
13.10.2024 12:44:31:45,1504,0,1,2,28645,58795,5062,18,22,999
13.10.2024 12:44:31:49,1505,0,1,2,28643,58796,5066,19,19,997
13.10.2024 12:44:31:52,1506,0,1,2,28653,58799,5065,21,24,991
13.10.2024 12:44:31:55,1507,0,1,2,28645,58797,5066,20,22,997
13.10.2024 12:44:31:58,1508,0,1,2,28646,58798,5065,16,24,998
13.10.2024 12:44:31:62,1509,0,1,2,28645,58794,5065,18,20,994
13.10.2024 12:44:31:65,1510,0,1,2,28645,58798,5065,15,19,994
13.10.2024 12:44:31:68,1511,0,1,2,28650,58799,5066,14,21,994
13.10.2024 12:44:31:71,1512,0,1,2,28652,58797,5064,21,22,995
13.10.2024 12:44:31:75,1513,0,1,2,28644,58799,5064,15,25,996
13.10.2024 12:44:31:78,1514,0,1,2,28648,58800,5066,19,19,1000
13.10.2024 12:44:31:81,1515,0,1,2,28647,58800,5066,16,17,995
13.10.2024 12:44:31:84,1516,0,1,2,28649,58799,5064,19,23,996
13.10.2024 12:44:31:88,1517,0,1,2,28645,58798,5064,18,25,995
13.10.2024 12:44:31:91,1518,0,1,2,28641,58800,5065,15,21,995
13.10.2024 12:44:31:94,1519,0,1,2,28647,58797,5066,15,22,997
13.10.2024 12:44:31:97,1520,0,1,2,28640,58796,5063,20,21,994
13.10.2024 12:44:31:100,1521,0,1,2,28649,58799,5066,17,24,994
13.10.2024 12:44:31:104,1522,0,1,2,28646,58794,5065,20,21,991
13.10.2024 12:44:31:107,1523,0,1,2,28649,58798,5066,17,24,999
13.10.2024 12:44:31:110,1524,0,1,2,28646,58798,5066,18,22,996
13.10.2024 12:44:31:113,1525,0,1,2,28649,58797,5066,15,25,996
13.10.2024 12:44:31:117,1526,0,1,2,28645,58797,5065,20,23,1000
13.10.2024 12:44:31:120,1527,0,1,2,28647,58798,5065,16,23,991
13.10.2024 12:44:31:123,1528,0,1,2,28646,58798,5064,17,18,997
13.10.2024 12:44:31:126,1529,0,1,2,28646,58800,5067,17,18,997
13.10.2024 12:44:31:130,1530,0,1,2,28643,58799,5066,21,24,995
13.10.2024 12:44:31:133,1531,0,1,2,28645,58798,5066,18,25,995
13.10.2024 12:44:31:136,1532,0,1,2,28651,58797,5066,19,23,995
13.10.2024 12:44:31:139,1533,0,1,2,28644,58795,5064,20,23,999
13.10.2024 12:44:31:143,1534,0,1,2,28648,58795,5065,20,23,996
13.10.2024 12:44:31:146,1535,0,1,2,28645,58794,5065,21,26,1002
13.10.2024 12:44:31:149,1536,0,1,2,28644,58801,5064,21,26,1002
13.10.2024 12:44:31:152,1537,0,1,2,28645,58796,5063,20,23,998
13.10.2024 12:44:31:156,1538,0,1,2,28649,58796,5065,18,25,997
13.10.2024 12:44:31:159,1539,0,1,2,28648,58799,5065,17,26,996
13.10.2024 12:44:31:162,1540,0,1,2,28647,58798,5063,19,25,993
13.10.2024 12:44:31:165,1541,0,1,2,28650,58797,5066,20,21,998
13.10.2024 12:44:31:169,1542,0,1,2,28648,58800,5064,19,23,994
13.10.2024 12:44:31:172,1543,0,1,2,28645,58799,5065,16,21,998
13.10.2024 12:44:31:175,1544,0,1,2,28644,58799,5063,15,22,1000
13.10.2024 12:44:31:178,1545,0,1,2,28645,58797,5065,19,19,994
13.10.2024 12:44:31:182,1546,0,1,2,28650,58795,5064,18,25,992
13.10.2024 12:44:31:185,1547,0,1,2,28646,58797,5065,21,20,998
13.10.2024 12:44:31:188,1548,0,1,2,28647,58796,5065,15,26,999
13.10.2024 12:44:31:191,1549,0,1,2,28643,58799,5065,18,20,998
13.10.2024 12:44:31:195,1550,0,1,2,28645,58794,5066,16,20,997
13.10.2024 12:44:31:198,1551,0,1,2,28647,58796,5063,14,21,996
13.10.2024 12:44:31:201,1552,0,1,2,28647,58797,5064,19,22,998
13.10.2024 12:44:31:204,1553,0,1,2,28644,58795,5064,20,20,998
13.10.2024 12:44:31:208,1554,0,1,2,28644,58800,5064,15,21,996
13.10.2024 12:44:31:211,1555,0,1,2,28640,58793,5065,20,23,996
13.10.2024 12:44:31:214,1556,0,1,2,28647,58797,5064,17,25,993
13.10.2024 12:44:31:217,1557,0,1,2,28643,58792,5064,17,17,998
13.10.2024 12:44:31:221,1558,0,1,2,28651,58800,5064,17,23,1005
13.10.2024 12:44:31:224,1559,0,1,2,28645,58792,5063,17,23,1005
13.10.2024 12:44:31:227,1560,0,1,2,28651,58802,5063,16,27,990
13.10.2024 12:44:31:230,1561,0,1,2,28645,58793,5064,18,21,996
13.10.2024 12:44:31:233,1562,0,1,2,28643,58799,5067,18,23,993
13.10.2024 12:44:31:237,1563,0,1,2,28642,58797,5065,18,22,995
13.10.2024 12:44:31:240,1564,0,1,2,28650,58794,5064,20,23,998
13.10.2024 12:44:31:243,1565,0,1,2,28647,58798,5063,14,22,994
13.10.2024 12:44:31:246,1566,0,1,2,28646,58798,5066,14,25,995
13.10.2024 12:44:31:250,1567,0,1,2,28641,58797,5066,18,18,996
13.10.2024 12:44:31:253,1568,0,1,2,28647,58797,5064,13,20,994
13.10.2024 12:44:31:256,1569,0,1,2,28651,58797,5064,20,25,998
13.10.2024 12:44:31:259,1570,0,1,2,28648,58795,5064,19,23,995
13.10.2024 12:44:31:263,1571,0,1,2,28645,58797,5064,21,23,993
13.10.2024 12:44:31:266,1572,0,1,2,28650,58799,5063,18,22,999
13.10.2024 12:44:31:269,1573,0,1,2,28644,58801,5064,16,26,994
13.10.2024 12:44:31:272,1574,0,1,2,28647,58796,5066,16,26,994
13.10.2024 12:44:31:276,1575,0,1,2,28644,58796,5065,17,29,999
13.10.2024 12:44:31:279,1576,0,1,2,28649,58798,5066,18,24,994
13.10.2024 12:44:31:282,1577,0,1,2,28643,58795,5064,17,27,996
13.10.2024 12:44:31:285,1578,0,1,2,28647,58796,5065,18,24,997
13.10.2024 12:44:31:289,1579,0,1,2,28645,58795,5064,20,22,996
13.10.2024 12:44:31:292,1580,0,1,2,28648,58795,5066,16,26,997
13.10.2024 12:44:31:295,1581,0,1,2,28647,58795,5065,20,27,999
13.10.2024 12:44:31:298,1582,0,1,2,28648,58801,5065,20,27,999
13.10.2024 12:44:31:302,1583,0,1,2,28648,58793,5064,17,28,993
13.10.2024 12:44:31:305,1584,0,1,2,28641,58797,5063,20,24,995
13.10.2024 12:44:31:308,1585,0,1,2,28647,58794,5065,16,20,998
13.10.2024 12:44:31:311,1586,0,1,2,28646,58797,5066,15,21,993
13.10.2024 12:44:31:315,1587,0,1,2,28647,58800,5066,19,22,996
13.10.2024 12:44:31:318,1588,0,1,2,28647,58797,5066,15,23,994
13.10.2024 12:44:31:321,1589,0,1,2,28638,58796,5067,15,23,994
13.10.2024 12:44:31:324,1590,0,1,2,28646,58799,5064,14,20,997
13.10.2024 12:44:31:328,1591,0,1,2,28642,58796,5065,18,21,995
13.10.2024 12:44:31:331,1592,0,1,2,28646,58798,5065,13,24,996
13.10.2024 12:44:31:334,1593,0,1,2,28643,58796,5064,13,22,998
13.10.2024 12:44:31:337,1594,0,1,2,28643,58796,5065,14,17,995
13.10.2024 12:44:31:341,1595,0,1,2,28640,58798,5065,16,18,996
13.10.2024 12:44:31:344,1596,0,1,2,28648,58797,5063,15,21,996
13.10.2024 12:44:31:347,1597,0,1,2,28644,58798,5065,16,23,996
13.10.2024 12:44:31:350,1598,0,1,2,28642,58794,5064,18,26,999
13.10.2024 12:44:31:354,1599,0,1,2,28644,58799,5063,12,19,996
13.10.2024 12:44:31:357,1600,0,1,2,28645,58795,5064,20,24,997
13.10.2024 12:44:31:360,1601,0,1,2,28649,58795,5065,19,26,997
13.10.2024 12:44:31:363,1602,0,1,2,28641,58793,5065,18,18,995
13.10.2024 12:44:31:366,1603,0,1,2,28645,58797,5064,21,26,994
13.10.2024 12:44:31:370,1604,0,1,2,28645,58796,5064,21,26,994
13.10.2024 12:44:31:373,1605,0,1,2,28646,58798,5064,20,20,999
13.10.2024 12:44:31:376,1606,0,1,2,28646,58796,5066,18,23,994
13.10.2024 12:44:31:379,1607,0,1,2,28650,58800,5066,17,25,995
13.10.2024 12:44:31:383,1608,0,1,2,28645,58800,5065,17,24,992
13.10.2024 12:44:31:386,1609,0,1,2,28649,58796,5067,16,24,995
13.10.2024 12:44:31:389,1610,0,1,2,28646,58799,5067,19,24,997
13.10.2024 12:44:31:392,1611,0,1,2,28649,58795,5065,20,27,996
13.10.2024 12:44:31:396,1612,0,1,2,28641,58796,5067,17,26,995
13.10.2024 12:44:31:399,1613,0,1,2,28644,58794,5064,19,23,997
13.10.2024 12:44:31:402,1614,0,1,2,28649,58797,5063,16,23,999
13.10.2024 12:44:31:405,1615,0,1,2,28643,58797,5065,16,25,994
13.10.2024 12:44:31:409,1616,0,1,2,28648,58794,5064,18,23,997
13.10.2024 12:44:31:412,1617,0,1,2,28645,58795,5064,16,29,998
13.10.2024 12:44:31:415,1618,0,1,2,28646,58798,5065,22,20,993
13.10.2024 12:44:31:418,1619,0,1,2,28648,58795,5064,22,20,993
13.10.2024 12:44:31:422,1620,0,1,2,28650,58792,5063,18,21,991
13.10.2024 12:44:31:425,1621,0,1,2,28642,58794,5066,12,24,998
13.10.2024 12:44:31:428,1622,0,1,2,28646,58792,5063,14,23,998
13.10.2024 12:44:31:431,1623,0,1,2,28642,58795,5064,19,23,996
13.10.2024 12:44:31:435,1624,0,1,2,28648,58796,5065,19,21,994
13.10.2024 12:44:31:438,1625,0,1,2,28646,58796,5065,14,19,999
13.10.2024 12:44:31:441,1626,0,1,2,28642,58798,5063,18,24,996
13.10.2024 12:44:31:444,1627,0,1,2,28645,58795,5065,17,20,995
13.10.2024 12:44:31:448,1628,0,1,2,28644,58800,5064,17,20,995
13.10.2024 12:44:31:451,1629,0,1,2,28644,58797,5066,18,22,996
13.10.2024 12:44:31:454,1630,0,1,2,28648,58796,5065,20,20,998
13.10.2024 12:44:31:457,1631,0,1,2,28645,58796,5065,17,22,998
13.10.2024 12:44:31:461,1632,0,1,2,28645,58798,5064,21,18,994
13.10.2024 12:44:31:464,1633,0,1,2,28646,58795,5064,18,19,992
13.10.2024 12:44:31:467,1634,0,1,2,28648,58795,5066,18,19,992
13.10.2024 12:44:31:470,1635,0,1,2,28649,58795,5064,16,23,996
13.10.2024 12:44:31:474,1636,0,1,2,28642,58796,5065,17,22,995
13.10.2024 12:44:31:477,1637,0,1,2,28647,58798,5064,19,20,999
13.10.2024 12:44:31:480,1638,0,1,2,28644,58796,5066,22,18,1000
13.10.2024 12:44:31:483,1639,0,1,2,28646,58800,5065,19,22,997
13.10.2024 12:44:31:487,1640,0,1,2,28646,58797,5066,17,25,997
13.10.2024 12:44:31:490,1641,0,1,2,28646,58798,5063,14,25,995
13.10.2024 12:44:31:493,1642,0,1,2,28647,58798,5066,20,17,999
13.10.2024 12:44:31:496,1643,0,1,2,28641,58794,5067,20,21,997
13.10.2024 12:44:31:499,1644,0,1,2,28646,58797,5065,20,22,998
13.10.2024 12:44:31:503,1645,0,1,2,28652,58799,5066,22,26,997
13.10.2024 12:44:31:506,1646,0,1,2,28649,58797,5065,20,22,996
13.10.2024 12:44:31:509,1647,0,1,2,28645,58801,5066,15,24,992
13.10.2024 12:44:31:512,1648,0,1,2,28646,58801,5065,14,22,994
13.10.2024 12:44:31:516,1649,0,1,2,28650,58800,5063,14,22,994
13.10.2024 12:44:31:519,1650,0,1,2,28647,58792,5065,11,22,1000
13.10.2024 12:44:31:522,1651,0,1,2,28648,58790,5065,14,24,996
13.10.2024 12:44:31:525,1652,0,1,2,28648,58790,5063,13,26,1003
13.10.2024 12:44:31:529,1653,0,1,2,28637,58791,5064,19,23,999
13.10.2024 12:44:31:532,1654,0,1,2,28645,58790,5065,17,25,998
13.10.2024 12:44:31:535,1655,0,1,2,28644,58793,5065,19,23,998
13.10.2024 12:44:31:538,1656,0,1,2,28649,58792,5066,18,19,990
13.10.2024 12:44:31:542,1657,0,1,2,28644,58792,5065,20,21,994
13.10.2024 12:44:31:545,1658,0,1,2,28649,58797,5065,19,24,996
13.10.2024 12:44:31:548,1659,0,1,2,28646,58799,5064,20,21,993
13.10.2024 12:44:31:551,1660,0,1,2,28647,58796,5065,15,23,993
13.10.2024 12:44:31:555,1661,0,1,2,28644,58796,5065,18,21,996
13.10.2024 12:44:31:558,1662,0,1,2,28646,58799,5064,17,23,992
13.10.2024 12:44:31:561,1663,0,1,2,28643,58799,5066,13,25,1002
13.10.2024 12:44:31:564,1664,0,1,2,28643,58800,5065,13,25,1002
13.10.2024 12:44:31:568,1665,0,1,2,28647,58794,5066,17,22,995
13.10.2024 12:44:31:571,1666,0,1,2,28649,58793,5065,15,22,1000
13.10.2024 12:44:31:574,1667,0,1,2,28645,58792,5064,19,22,996
13.10.2024 12:44:31:577,1668,0,1,2,28643,58791,5065,18,26,997
13.10.2024 12:44:31:581,1669,0,1,2,28640,58794,5065,15,23,997
13.10.2024 12:44:31:584,1670,0,1,2,28644,58794,5068,18,26,996
13.10.2024 12:44:31:587,1671,0,1,2,28646,58797,5066,15,21,995
13.10.2024 12:44:31:590,1672,0,1,2,28645,58796,5066,16,18,994
13.10.2024 12:44:31:594,1673,0,1,2,28654,58802,5066,18,22,991
13.10.2024 12:44:31:597,1674,0,1,2,28644,58800,5065,18,22,991
13.10.2024 12:44:31:600,1675,0,1,2,28642,58788,5065,16,21,1000
13.10.2024 12:44:31:603,1676,0,1,2,28645,58794,5065,17,21,995
13.10.2024 12:44:31:607,1677,0,1,2,28646,58802,5066,18,20,991
13.10.2024 12:44:31:610,1678,0,1,2,28644,58780,5063,14,22,1001
13.10.2024 12:44:31:613,1679,0,1,2,28642,58792,5066,14,22,1001
13.10.2024 12:44:31:616,1680,0,1,2,28648,58798,5065,14,22,997
13.10.2024 12:44:31:620,1681,0,1,2,28642,58787,5063,18,24,999
13.10.2024 12:44:31:623,1682,0,1,2,28648,58801,5066,17,21,995
13.10.2024 12:44:31:626,1683,0,1,2,28645,58787,5065,18,22,1004
13.10.2024 12:44:31:629,1684,0,1,2,28646,58796,5064,19,25,993
13.10.2024 12:44:31:632,1685,0,1,2,28651,58793,5065,20,24,996
13.10.2024 12:44:31:636,1686,0,1,2,28644,58789,5065,19,22,999
13.10.2024 12:44:31:639,1687,0,1,2,28641,58790,5063,16,25,999
13.10.2024 12:44:31:642,1688,0,1,2,28640,58785,5065,18,22,995
13.10.2024 12:44:31:645,1689,0,1,2,28642,58793,5064,15,20,995
13.10.2024 12:44:31:649,1690,0,1,2,28639,58781,5064,18,23,1003
13.10.2024 12:44:31:652,1691,0,1,2,28641,58794,5066,16,23,997
13.10.2024 12:44:31:655,1692,0,1,2,28641,58792,5063,20,22,998
13.10.2024 12:44:31:658,1693,0,1,2,28645,58795,5064,17,23,990
13.10.2024 12:44:31:662,1694,0,1,2,28650,58808,5066,17,23,990
13.10.2024 12:44:31:665,1695,0,1,2,28648,58805,5064,18,21,990
13.10.2024 12:44:31:668,1696,0,1,2,28646,58804,5065,15,21,988
13.10.2024 12:44:31:671,1697,0,1,2,28646,58802,5064,15,22,991
13.10.2024 12:44:31:675,1698,0,1,2,28646,58802,5064,14,24,995
13.10.2024 12:44:31:678,1699,0,1,2,28645,58791,5066,16,21,999
13.10.2024 12:44:31:681,1700,0,1,2,28649,58791,5064,20,19,1002
13.10.2024 12:44:31:684,1701,0,1,2,28637,58784,5063,18,19,997
13.10.2024 12:44:31:688,1702,0,1,2,28637,58783,5062,14,25,1007
13.10.2024 12:44:31:691,1703,0,1,2,28643,58787,5062,19,24,1002
13.10.2024 12:44:31:694,1704,0,1,2,28640,58786,5063,20,25,1004
13.10.2024 12:44:31:697,1705,0,1,2,28645,58792,5066,20,26,994
13.10.2024 12:44:31:701,1706,0,1,2,28641,58792,5065,17,26,991
13.10.2024 12:44:31:704,1707,0,1,2,28647,58797,5064,15,22,995
13.10.2024 12:44:31:707,1708,0,1,2,28651,58800,5064,12,22,990
13.10.2024 12:44:31:710,1709,0,1,2,28645,58801,5066,12,22,990
13.10.2024 12:44:31:714,1710,0,1,2,28645,58799,5066,14,26,990
13.10.2024 12:44:31:717,1711,0,1,2,28649,58800,5065,15,22,992
13.10.2024 12:44:31:720,1712,0,1,2,28645,58793,5064,12,22,995
13.10.2024 12:44:31:723,1713,0,1,2,28646,58795,5066,17,28,995
13.10.2024 12:44:31:727,1714,0,1,2,28644,58792,5064,16,22,999
13.10.2024 12:44:31:730,1715,0,1,2,28649,58788,5064,17,23,996
13.10.2024 12:44:31:733,1716,0,1,2,28641,58788,5063,17,17,1001
13.10.2024 12:44:31:736,1717,0,1,2,28646,58791,5065,14,24,999
13.10.2024 12:44:31:740,1718,0,1,2,28642,58785,5063,20,22,998
13.10.2024 12:44:31:743,1719,0,1,2,28638,58786,5064,17,20,998
13.10.2024 12:44:31:746,1720,0,1,2,28642,58788,5066,17,20,998
13.10.2024 12:44:31:749,1721,0,1,2,28644,58788,5065,21,22,995
13.10.2024 12:44:31:753,1722,0,1,2,28644,58798,5064,15,21,998
13.10.2024 12:44:31:756,1723,0,1,2,28646,58798,5065,22,16,994
13.10.2024 12:44:31:759,1724,0,1,2,28648,58799,5067,16,23,993
13.10.2024 12:44:31:762,1725,0,1,2,28646,58801,5064,19,22,997
13.10.2024 12:44:31:765,1726,0,1,2,28646,58796,5063,18,22,993
13.10.2024 12:44:31:769,1727,0,1,2,28644,58797,5065,22,20,996
13.10.2024 12:44:31:772,1728,0,1,2,28643,58798,5063,15,26,996
13.10.2024 12:44:31:775,1729,0,1,2,28643,58793,5064,19,29,998
13.10.2024 12:44:31:778,1730,0,1,2,28644,58795,5065,19,24,996
13.10.2024 12:44:31:782,1731,0,1,2,28643,58791,5064,22,23,997
13.10.2024 12:44:31:785,1732,0,1,2,28645,58795,5063,18,23,997
13.10.2024 12:44:31:788,1733,0,1,2,28640,58791,5064,20,21,996
13.10.2024 12:44:31:791,1734,0,1,2,28642,58793,5065,19,26,998
13.10.2024 12:44:31:795,1735,0,1,2,28643,58792,5064,18,21,999
13.10.2024 12:44:31:798,1736,0,1,2,28643,58790,5062,22,27,997
13.10.2024 12:44:31:801,1737,0,1,2,28645,58793,5064,14,26,995
13.10.2024 12:44:31:804,1738,0,1,2,28643,58791,5065,15,25,997
13.10.2024 12:44:31:808,1739,0,1,2,28643,58792,5065,19,25,998
13.10.2024 12:44:31:811,1740,0,1,2,28645,58791,5066,16,22,996
13.10.2024 12:44:31:814,1741,0,1,2,28648,58793,5063,13,23,996
13.10.2024 12:44:31:817,1742,0,1,2,28644,58791,5063,14,27,996
13.10.2024 12:44:31:821,1743,0,1,2,28642,58795,5066,16,21,990
13.10.2024 12:44:31:824,1744,0,1,2,28645,58794,5065,13,22,995
13.10.2024 12:44:31:827,1745,0,1,2,28643,58794,5065,13,25,993
13.10.2024 12:44:31:830,1746,0,1,2,28646,58792,5065,19,26,998
13.10.2024 12:44:31:834,1747,0,1,2,28641,58789,5064,19,25,994
13.10.2024 12:44:31:837,1748,0,1,2,28644,58792,5064,19,21,997
13.10.2024 12:44:31:840,1749,0,1,2,28643,58790,5064,18,19,937
13.10.2024 12:44:31:843,1750,0,1,2,28644,58790,5064,16,21,995
13.10.2024 12:44:31:847,1751,0,1,2,28644,58791,5063,15,19,1000
13.10.2024 12:44:31:850,1752,0,1,2,28643,58791,5066,14,26,997
13.10.2024 12:44:31:853,1753,0,1,2,28646,58801,5066,18,22,989
13.10.2024 12:44:31:856,1754,0,1,2,28645,58794,5066,16,24,995
13.10.2024 12:44:31:860,1755,0,1,2,28646,58799,5065,19,21,994
13.10.2024 12:44:31:863,1756,0,1,2,28649,58794,5066,18,25,1000
13.10.2024 12:44:31:866,1757,0,1,2,28642,58792,5063,23,24,996
13.10.2024 12:44:31:869,1758,0,1,2,28649,58795,5064,19,23,995
13.10.2024 12:44:31:873,1759,0,1,2,28643,58786,5066,19,23,1002
13.10.2024 12:44:31:876,1760,0,1,2,28640,58790,5065,18,23,996
13.10.2024 12:44:31:879,1761,0,1,2,28640,58788,5065,16,24,999
13.10.2024 12:44:31:882,1762,0,1,2,28643,58791,5065,14,24,993
13.10.2024 12:44:31:886,1763,0,1,2,28646,58790,5064,20,20,995
13.10.2024 12:44:31:889,1764,0,1,2,28644,58794,5066,19,19,993
13.10.2024 12:44:31:892,1765,0,1,2,28652,58799,5066,17,22,991
13.10.2024 12:44:31:895,1766,0,1,2,28648,58796,5064,17,22,991
13.10.2024 12:44:31:898,1767,0,1,2,28645,58798,5066,16,22,991
13.10.2024 12:44:31:902,1768,0,1,2,28648,58796,5066,18,18,996
13.10.2024 12:44:31:905,1769,0,1,2,28642,58796,5066,18,18,995
13.10.2024 12:44:31:908,1770,0,1,2,28647,58791,5064,20,22,997
13.10.2024 12:44:31:911,1771,0,1,2,28646,58792,5063,17,20,996
13.10.2024 12:44:31:915,1772,0,1,2,28640,58789,5064,15,21,996
13.10.2024 12:44:31:918,1773,0,1,2,28643,58789,5064,18,23,995
13.10.2024 12:44:31:921,1774,0,1,2,28643,58785,5064,20,19,998
13.10.2024 12:44:31:924,1775,0,1,2,28645,58790,5065,17,19,1000
13.10.2024 12:44:31:928,1776,0,1,2,28642,58789,5063,15,21,999
13.10.2024 12:44:31:931,1777,0,1,2,28645,58792,5065,15,22,995
13.10.2024 12:44:31:934,1778,0,1,2,28644,58798,5064,16,19,991
13.10.2024 12:44:31:937,1779,0,1,2,28640,58786,5064,13,24,999
13.10.2024 12:44:31:941,1780,0,1,2,28637,58789,5064,18,21,994
13.10.2024 12:44:31:944,1781,0,1,2,28646,58797,5065,14,26,986
13.10.2024 12:44:31:947,1782,0,1,2,28642,58782,5065,14,23,1000
13.10.2024 12:44:31:950,1783,0,1,2,28642,58798,5066,16,20,994
13.10.2024 12:44:31:954,1784,0,1,2,28639,58784,5064,15,24,999
13.10.2024 12:44:31:957,1785,0,1,2,28649,58791,5065,19,17,994
13.10.2024 12:44:31:960,1786,0,1,2,28645,58792,5065,16,20,994
13.10.2024 12:44:31:963,1787,0,1,2,28641,58790,5065,20,22,998
13.10.2024 12:44:31:967,1788,0,1,2,28642,58794,5065,15,25,997
13.10.2024 12:44:31:970,1789,0,1,2,28645,58790,5066,18,24,995
13.10.2024 12:44:31:973,1790,0,1,2,28643,58795,5062,21,27,996
13.10.2024 12:44:31:976,1791,0,1,2,28641,58789,5066,17,23,1000
13.10.2024 12:44:31:980,1792,0,1,2,28642,58789,5064,15,22,995
13.10.2024 12:44:31:983,1793,0,1,2,28639,58787,5064,19,24,998
13.10.2024 12:44:31:986,1794,0,1,2,28640,58790,5065,14,21,994
13.10.2024 12:44:31:989,1795,0,1,2,28642,58790,5065,18,26,992
13.10.2024 12:44:31:993,1796,0,1,2,28646,58796,5065,15,23,993
13.10.2024 12:44:31:996,1797,0,1,2,28639,58790,5064,22,19,993
13.10.2024 12:44:31:999,1798,0,1,2,28636,58792,5065,20,24,992
13.10.2024 12:44:32:2,1799,0,1,2,28644,58792,5067,17,23,996
13.10.2024 12:44:32:6,1800,0,1,2,28643,58794,5065,12,26,996
13.10.2024 12:44:32:9,1801,0,1,2,28644,58794,5066,17,25,997
13.10.2024 12:44:32:12,1802,0,1,2,28640,58789,5064,17,28,1004
13.10.2024 12:44:32:15,1803,0,1,2,28643,58791,5067,21,26,993
13.10.2024 12:44:32:19,1804,0,1,2,28639,58788,5066,17,25,995
13.10.2024 12:44:32:22,1805,0,1,2,28643,58792,5064,20,23,997
13.10.2024 12:44:32:25,1806,0,1,2,28640,58786,5064,20,23,1000
13.10.2024 12:44:32:28,1807,0,1,2,28643,58791,5065,14,22,999
13.10.2024 12:44:32:31,1808,0,1,2,28643,58790,5065,21,24,998
13.10.2024 12:44:32:35,1809,0,1,2,28647,58788,5064,16,24,994
13.10.2024 12:44:32:38,1810,0,1,2,28643,58792,5064,15,16,998
13.10.2024 12:44:32:41,1811,0,1,2,28647,58790,5066,20,24,998
13.10.2024 12:44:32:44,1812,0,1,2,28642,58792,5065,20,24,998
13.10.2024 12:44:32:48,1813,0,1,2,28642,58792,5063,18,24,998
13.10.2024 12:44:32:51,1814,0,1,2,28641,58791,5064,15,15,992
13.10.2024 12:44:32:54,1815,0,1,2,28648,58790,5063,15,21,998
13.10.2024 12:44:32:57,1816,0,1,2,28643,58790,5065,16,19,993
13.10.2024 12:44:32:61,1817,0,1,2,28640,58790,5066,11,24,995
13.10.2024 12:44:32:64,1818,0,1,2,28643,58790,5064,15,18,996
13.10.2024 12:44:32:67,1819,0,1,2,28644,58792,5065,19,14,995
13.10.2024 12:44:32:70,1820,0,1,2,28642,58791,5066,16,17,996
13.10.2024 12:44:32:74,1821,0,1,2,28640,58789,5065,19,23,997
13.10.2024 12:44:32:77,1822,0,1,2,28637,58789,5064,20,21,998
13.10.2024 12:44:32:80,1823,0,1,2,28640,58788,5065,15,25,996
13.10.2024 12:44:32:83,1824,0,1,2,28643,58790,5065,18,23,997
13.10.2024 12:44:32:87,1825,0,1,2,28642,58786,5064,18,24,996
13.10.2024 12:44:32:90,1826,0,1,2,28643,58785,5066,18,24,993
13.10.2024 12:44:32:93,1827,0,1,2,28645,58789,5063,14,26,995
13.10.2024 12:44:32:96,1828,0,1,2,28640,58790,5066,14,24,996
13.10.2024 12:44:32:100,1829,0,1,2,28643,58790,5064,21,27,996
13.10.2024 12:44:32:103,1830,0,1,2,28643,58790,5066,14,23,994
13.10.2024 12:44:32:106,1831,0,1,2,28643,58791,5065,19,26,995
13.10.2024 12:44:32:109,1832,0,1,2,28640,58790,5064,22,24,998
13.10.2024 12:44:32:113,1833,0,1,2,28642,58794,5063,17,25,1001
13.10.2024 12:44:32:116,1834,0,1,2,28638,58786,5065,12,26,997
13.10.2024 12:44:32:119,1835,0,1,2,28643,58788,5063,16,29,996
13.10.2024 12:44:32:122,1836,0,1,2,28642,58786,5064,14,25,995
13.10.2024 12:44:32:126,1837,0,1,2,28641,58787,5065,17,21,997
13.10.2024 12:44:32:129,1838,0,1,2,28645,58788,5065,15,23,1000
13.10.2024 12:44:32:132,1839,0,1,2,28644,58786,5063,17,21,998
13.10.2024 12:44:32:135,1840,0,1,2,28642,58789,5064,20,21,994
13.10.2024 12:44:32:139,1841,0,1,2,28641,58793,5063,12,25,996
13.10.2024 12:44:32:142,1842,0,1,2,28637,58789,5066,17,24,996
13.10.2024 12:44:32:145,1843,0,1,2,28644,58791,5065,17,27,993
13.10.2024 12:44:32:148,1844,0,1,2,28641,58790,5064,16,22,996
13.10.2024 12:44:32:152,1845,0,1,2,28635,58790,5067,18,22,996
13.10.2024 12:44:32:155,1846,0,1,2,28646,58794,5066,14,22,999
13.10.2024 12:44:32:158,1847,0,1,2,28649,58791,5063,16,23,997
13.10.2024 12:44:32:161,1848,0,1,2,28643,58793,5063,15,24,996
13.10.2024 12:44:32:164,1849,0,1,2,28643,58789,5066,16,24,994
13.10.2024 12:44:32:168,1850,0,1,2,28641,58791,5064,18,22,997
13.10.2024 12:44:32:171,1851,0,1,2,28643,58793,5064,19,20,994
13.10.2024 12:44:32:174,1852,0,1,2,28640,58788,5066,14,25,995
13.10.2024 12:44:32:177,1853,0,1,2,28641,58787,5065,13,24,995
13.10.2024 12:44:32:181,1854,0,1,2,28634,58789,5067,16,22,993
13.10.2024 12:44:32:184,1855,0,1,2,28642,58789,5062,14,18,997
13.10.2024 12:44:32:187,1856,0,1,2,28643,58788,5064,13,22,995
13.10.2024 12:44:32:190,1857,0,1,2,28642,58787,5063,15,24,997
13.10.2024 12:44:32:194,1858,0,1,2,28642,58787,5064,13,20,993
13.10.2024 12:44:32:197,1859,0,1,2,28637,58790,5064,16,24,997
13.10.2024 12:44:32:200,1860,0,1,2,28641,58789,5065,18,27,995
13.10.2024 12:44:32:203,1861,0,1,2,28640,58788,5066,15,21,995
13.10.2024 12:44:32:207,1862,0,1,2,28639,58786,5063,17,23,993
13.10.2024 12:44:32:210,1863,0,1,2,28639,58791,5066,14,19,1001
13.10.2024 12:44:32:213,1864,0,1,2,28646,58792,5063,17,19,993
13.10.2024 12:44:32:216,1865,0,1,2,28643,58790,5065,14,22,994
13.10.2024 12:44:32:220,1866,0,1,2,28642,58792,5065,16,19,997
13.10.2024 12:44:32:223,1867,0,1,2,28641,58790,5065,17,22,997
13.10.2024 12:44:32:226,1868,0,1,2,28641,58789,5063,18,21,996
13.10.2024 12:44:32:229,1869,0,1,2,28640,58790,5066,21,22,993
13.10.2024 12:44:32:233,1870,0,1,2,28642,58788,5063,17,23,997
13.10.2024 12:44:32:236,1871,0,1,2,28639,58790,5066,16,27,995
13.10.2024 12:44:32:239,1872,0,1,2,28643,58788,5064,18,25,997
13.10.2024 12:44:32:242,1873,0,1,2,28637,58788,5066,18,23,993
13.10.2024 12:44:32:246,1874,0,1,2,28645,58788,5066,19,25,999
13.10.2024 12:44:32:249,1875,0,1,2,28641,58788,5065,19,25,994
13.10.2024 12:44:32:252,1876,0,1,2,28641,58787,5065,17,21,995
13.10.2024 12:44:32:255,1877,0,1,2,28641,58785,5065,15,25,994
13.10.2024 12:44:32:259,1878,0,1,2,28637,58789,5065,20,23,997
13.10.2024 12:44:32:262,1879,0,1,2,28641,58793,5065,19,23,997
13.10.2024 12:44:32:265,1880,0,1,2,28643,58790,5064,13,24,996
13.10.2024 12:44:32:268,1881,0,1,2,28646,58791,5064,18,22,996
13.10.2024 12:44:32:272,1882,0,1,2,28642,58791,5064,20,20,997
13.10.2024 12:44:32:275,1883,0,1,2,28642,58790,5065,19,20,996
13.10.2024 12:44:32:278,1884,0,1,2,28643,58788,5064,17,22,999
13.10.2024 12:44:32:281,1885,0,1,2,28646,58788,5064,18,22,994
13.10.2024 12:44:32:285,1886,0,1,2,28642,58791,5066,18,25,998
13.10.2024 12:44:32:288,1887,0,1,2,28644,58787,5065,18,24,998
13.10.2024 12:44:32:291,1888,0,1,2,28644,58790,5064,17,23,994
13.10.2024 12:44:32:294,1889,0,1,2,28644,58789,5063,20,21,993
13.10.2024 12:44:32:297,1890,0,1,2,28638,58787,5066,15,20,992
13.10.2024 12:44:32:301,1891,0,1,2,28643,58789,5065,19,20,937
13.10.2024 12:44:32:304,1892,0,1,2,28639,58786,5065,17,20,995
13.10.2024 12:44:32:307,1893,0,1,2,28642,58790,5066,16,20,995
13.10.2024 12:44:32:310,1894,0,1,2,28642,58790,5065,15,26,995
13.10.2024 12:44:32:314,1895,0,1,2,28639,58789,5065,13,27,995
13.10.2024 12:44:32:317,1896,0,1,2,28644,58786,5065,15,26,996
13.10.2024 12:44:32:320,1897,0,1,2,28639,58788,5063,17,22,996
13.10.2024 12:44:32:323,1898,0,1,2,28642,58788,5064,16,25,995
13.10.2024 12:44:32:327,1899,0,1,2,28645,58788,5064,23,26,996
13.10.2024 12:44:32:330,1900,0,1,2,28641,58790,5065,18,26,1000
13.10.2024 12:44:32:333,1901,0,1,2,28639,58788,5064,20,26,995
13.10.2024 12:44:32:336,1902,0,1,2,28638,58784,5063,15,27,1000
13.10.2024 12:44:32:340,1903,0,1,2,28637,58784,5063,16,27,996
13.10.2024 12:44:32:343,1904,0,1,2,28642,58785,5063,16,24,998
13.10.2024 12:44:32:346,1905,0,1,2,28640,58785,5065,20,22,998
13.10.2024 12:44:32:349,1906,0,1,2,28642,58788,5064,13,25,1000
13.10.2024 12:44:32:353,1907,0,1,2,28639,58788,5063,18,20,1001
13.10.2024 12:44:32:356,1908,0,1,2,28644,58787,5064,14,21,993
13.10.2024 12:44:32:359,1909,0,1,2,28636,58787,5064,17,21,997
13.10.2024 12:44:32:362,1910,0,1,2,28644,58788,5065,20,23,1003
13.10.2024 12:44:32:366,1911,0,1,2,28647,58796,5066,18,19,995
13.10.2024 12:44:32:369,1912,0,1,2,28638,58778,5065,17,22,1004
13.10.2024 12:44:32:372,1913,0,1,2,28647,58790,5066,15,27,995
13.10.2024 12:44:32:375,1914,0,1,2,28642,58783,5063,18,23,1003
13.10.2024 12:44:32:379,1915,0,1,2,28635,58787,5063,18,24,994
13.10.2024 12:44:32:382,1916,0,1,2,28646,58785,5065,17,20,996
13.10.2024 12:44:32:385,1917,0,1,2,28644,58785,5064,14,20,994
13.10.2024 12:44:32:388,1918,0,1,2,28640,58790,5064,19,21,996
13.10.2024 12:44:32:392,1919,0,1,2,28646,58786,5065,17,21,997
13.10.2024 12:44:32:395,1920,0,1,2,28643,58790,5065,17,21,997
13.10.2024 12:44:32:398,1921,0,1,2,28641,58788,5064,15,23,997
13.10.2024 12:44:32:401,1922,0,1,2,28639,58788,5064,22,24,994
13.10.2024 12:44:32:405,1923,0,1,2,28636,58788,5065,13,24,991
13.10.2024 12:44:32:408,1924,0,1,2,28643,58790,5065,19,23,1002
13.10.2024 12:44:32:411,1925,0,1,2,28640,58790,5063,18,28,1000
13.10.2024 12:44:32:414,1926,0,1,2,28646,58788,5063,14,27,992
13.10.2024 12:44:32:418,1927,0,1,2,28641,58786,5066,15,24,996
13.10.2024 12:44:32:421,1928,0,1,2,28646,58788,5064,19,25,996
13.10.2024 12:44:32:424,1929,0,1,2,28638,58784,5064,16,21,994
13.10.2024 12:44:32:427,1930,0,1,2,28640,58788,5065,16,25,999
13.10.2024 12:44:32:430,1931,0,1,2,28642,58788,5066,20,25,1000
13.10.2024 12:44:32:434,1932,0,1,2,28642,58785,5065,17,19,996
13.10.2024 12:44:32:437,1933,0,1,2,28637,58788,5064,20,21,997
13.10.2024 12:44:32:440,1934,0,1,2,28637,58789,5065,14,24,996
13.10.2024 12:44:32:443,1935,0,1,2,28645,58789,5066,14,24,996
13.10.2024 12:44:32:447,1936,0,1,2,28643,58790,5065,16,22,996
13.10.2024 12:44:32:450,1937,0,1,2,28637,58786,5064,18,21,993
13.10.2024 12:44:32:453,1938,0,1,2,28644,58785,5065,16,21,996
13.10.2024 12:44:32:456,1939,0,1,2,28640,58787,5065,15,24,994
13.10.2024 12:44:32:460,1940,0,1,2,28643,58791,5064,19,16,992
13.10.2024 12:44:32:463,1941,0,1,2,28644,58788,5064,18,20,996
13.10.2024 12:44:32:466,1942,0,1,2,28642,58789,5062,16,19,996
13.10.2024 12:44:32:469,1943,0,1,2,28641,58786,5063,19,22,997
13.10.2024 12:44:32:473,1944,0,1,2,28641,58789,5062,15,23,998
13.10.2024 12:44:32:476,1945,0,1,2,28642,58784,5064,18,22,1001
13.10.2024 12:44:32:479,1946,0,1,2,28638,58786,5064,21,21,997
13.10.2024 12:44:32:482,1947,0,1,2,28636,58782,5066,17,22,999
13.10.2024 12:44:32:486,1948,0,1,2,28643,58789,5065,13,22,993
13.10.2024 12:44:32:489,1949,0,1,2,28642,58789,5063,18,23,993
13.10.2024 12:44:32:492,1950,0,1,2,28637,58789,5066,19,22,995
