Timestamp[Day.Month.Year Hour:Minute:Second:Milisecond],sampleNum,tagLEDC1_PD1,tagLEDC2_PD1,tagLEDC3_PD1,LED1_PPG1,LED2_PPG1,LED3_PPG1,ACC_X[mg],ACC_Y[mg],ACC_Z[mg]
05.10.2024 13:27:17:88,1,2,0,1,129519,100294,139999,32,-990,205
05.10.2024 13:27:17:92,2,2,0,1,129516,100288,139987,32,-994,204
05.10.2024 13:27:17:96,3,2,0,1,129520,100288,139965,35,-993,205
05.10.2024 13:27:17:100,4,2,0,1,129518,100276,139957,35,-992,206
05.10.2024 13:27:17:104,5,2,0,1,129513,100277,139948,34,-997,208
05.10.2024 13:27:17:108,6,2,0,1,129518,100282,139936,33,-995,206
05.10.2024 13:27:17:112,7,2,0,1,129519,100281,139923,29,-992,210
05.10.2024 13:27:17:116,8,2,0,1,129519,100280,139913,31,-996,200
05.10.2024 13:27:17:120,9,2,0,1,129516,100287,139903,34,-995,209
05.10.2024 13:27:17:123,10,2,0,1,129520,100285,139895,31,-991,206
05.10.2024 13:27:17:127,11,2,0,1,129516,100290,139888,29,-992,204
05.10.2024 13:27:17:131,12,2,0,1,129519,100287,139872,37,-995,205
05.10.2024 13:27:17:135,13,2,0,1,129516,100286,139867,35,-991,205
05.10.2024 13:27:17:139,14,2,0,1,129515,100287,139850,33,-993,205
05.10.2024 13:27:17:143,15,2,0,1,129515,100287,139849,33,-994,206
05.10.2024 13:27:17:147,16,2,0,1,129511,100280,139835,28,-989,207
05.10.2024 13:27:17:151,17,2,0,1,129511,100278,139829,35,-988,206
05.10.2024 13:27:17:155,18,2,0,1,129505,100289,139821,33,-992,201
05.10.2024 13:27:17:159,19,2,0,1,129509,100281,139816,34,-986,211
05.10.2024 13:27:17:162,20,2,0,1,129506,100284,139810,38,-989,207
05.10.2024 13:27:17:166,21,2,0,1,129503,100280,139807,35,-987,208
05.10.2024 13:27:17:170,22,2,0,1,129501,100280,139792,33,-989,206
05.10.2024 13:27:17:174,23,2,0,1,129506,100271,139783,36,-989,208
05.10.2024 13:27:17:178,24,2,0,1,129502,100270,139783,39,-983,203
05.10.2024 13:27:17:182,25,2,0,1,129503,100265,139778,37,-987,205
05.10.2024 13:27:17:186,26,2,0,1,129501,100256,139764,35,-989,206
05.10.2024 13:27:17:190,27,2,0,1,129500,100264,139763,38,-987,206
05.10.2024 13:27:17:194,28,2,0,1,129497,100258,139754,32,-990,206
05.10.2024 13:27:17:198,29,2,0,1,129496,100258,139743,35,-988,205
05.10.2024 13:27:17:201,30,2,0,1,129498,100254,139742,37,-988,210
05.10.2024 13:27:17:205,31,2,0,1,129492,100253,139737,32,-993,208
05.10.2024 13:27:17:209,32,2,0,1,129492,100246,139732,35,-987,204
05.10.2024 13:27:17:213,33,2,0,1,129488,100254,139733,33,-992,202
05.10.2024 13:27:17:217,34,2,0,1,129487,100243,139724,35,-993,211
05.10.2024 13:27:17:221,35,2,0,1,129487,100238,139721,34,-991,207
05.10.2024 13:27:17:225,36,2,0,1,129491,100244,139717,30,-991,206
05.10.2024 13:27:17:229,37,2,0,1,129492,100243,139713,36,-993,208
05.10.2024 13:27:17:233,38,2,0,1,129489,100236,139715,36,-993,204
05.10.2024 13:27:17:237,39,2,0,1,129486,100247,139705,36,-993,204
05.10.2024 13:27:17:240,40,2,0,1,129486,100250,139700,40,-990,206
05.10.2024 13:27:17:244,41,2,0,1,129488,100235,139694,36,-994,211
05.10.2024 13:27:17:248,42,2,0,1,129487,100237,139693,35,-992,207
05.10.2024 13:27:17:252,43,2,0,1,129488,100240,139689,35,-994,207
05.10.2024 13:27:17:256,44,2,0,1,129490,100237,139684,38,-988,202
05.10.2024 13:27:17:260,45,2,0,1,129488,100242,139692,36,-996,208
05.10.2024 13:27:17:264,46,2,0,1,129486,100240,139688,32,-993,208
05.10.2024 13:27:17:268,47,2,0,1,129491,100243,139682,36,-993,206
05.10.2024 13:27:17:272,48,2,0,1,129487,100249,139676,35,-990,205
05.10.2024 13:27:17:276,49,2,0,1,129484,100236,139678,38,-989,204
05.10.2024 13:27:17:279,50,2,0,1,129481,100240,139676,35,-988,207
05.10.2024 13:27:17:283,51,2,0,1,129483,100236,139675,40,-992,206
05.10.2024 13:27:17:287,52,2,0,1,129481,100242,139662,38,-993,203
05.10.2024 13:27:17:291,53,2,0,1,129484,100238,139665,34,-992,203
05.10.2024 13:27:17:295,54,2,0,1,129482,100250,139664,36,-995,207
05.10.2024 13:27:17:299,55,2,0,1,129483,100245,139667,37,-992,205
05.10.2024 13:27:17:303,56,2,0,1,129479,100242,139659,34,-989,209
05.10.2024 13:27:17:307,57,2,0,1,129484,100242,139663,34,-991,206
05.10.2024 13:27:17:311,58,2,0,1,129479,100246,139657,37,-987,205
05.10.2024 13:27:17:315,59,2,0,1,129481,100252,139652,32,-988,204
05.10.2024 13:27:17:318,60,2,0,1,129476,100247,139648,37,-987,204
05.10.2024 13:27:17:322,61,2,0,1,129477,100244,139654,35,-990,203
05.10.2024 13:27:17:326,62,2,0,1,129474,100251,139646,33,-988,207
05.10.2024 13:27:17:330,63,2,0,1,129480,100251,139646,39,-991,207
05.10.2024 13:27:17:334,64,2,0,1,129477,100263,139652,35,-992,208
05.10.2024 13:27:17:338,65,2,0,1,129480,100258,139642,37,-989,204
05.10.2024 13:27:17:342,66,2,0,1,129476,100260,139640,31,-995,203
05.10.2024 13:27:17:346,67,2,0,1,129483,100259,139640,33,-995,204
05.10.2024 13:27:17:350,68,2,0,1,129478,100265,139642,36,-993,208
05.10.2024 13:27:17:354,69,2,0,1,129474,100259,139635,34,-989,205
05.10.2024 13:27:17:357,70,2,0,1,129476,100267,139637,35,-990,205
05.10.2024 13:27:17:361,71,2,0,1,129472,100268,139634,35,-990,206
05.10.2024 13:27:17:365,72,2,0,1,129476,100276,139634,35,-990,205
05.10.2024 13:27:17:369,73,2,0,1,129475,100282,139635,38,-990,206
05.10.2024 13:27:17:373,74,2,0,1,129476,100286,139632,34,-996,205
05.10.2024 13:27:17:377,75,2,0,1,129473,100281,139631,33,-997,206
05.10.2024 13:27:17:381,76,2,0,1,129476,100285,139630,38,-989,208
05.10.2024 13:27:17:385,77,2,0,1,129469,100294,139629,37,-994,203
05.10.2024 13:27:17:389,78,2,0,1,129473,100283,139620,35,-992,208
05.10.2024 13:27:17:393,79,2,0,1,129470,100288,139627,34,-988,207
05.10.2024 13:27:17:396,80,2,0,1,129473,100287,139621,37,-992,205
05.10.2024 13:27:17:400,81,2,0,1,129473,100287,139626,35,-990,204
05.10.2024 13:27:17:404,82,2,0,1,129471,100301,139621,36,-990,208
05.10.2024 13:27:17:408,83,2,0,1,129465,100303,139623,36,-989,204
05.10.2024 13:27:17:412,84,2,0,1,129471,100296,139623,34,-992,209
05.10.2024 13:27:17:416,85,2,0,1,129473,100298,139616,39,-992,205
05.10.2024 13:27:17:420,86,2,0,1,129471,100306,139620,40,-994,206
05.10.2024 13:27:17:424,87,2,0,1,129470,100307,139617,38,-988,205
05.10.2024 13:27:17:428,88,2,0,1,129469,100302,139622,31,-991,208
05.10.2024 13:27:17:432,89,2,0,1,129470,100316,139617,36,-988,210
05.10.2024 13:27:17:435,90,2,0,1,129471,100313,139616,33,-989,204
05.10.2024 13:27:17:439,91,2,0,1,129472,100321,139616,40,-991,204
05.10.2024 13:27:17:443,92,2,0,1,129467,100325,139613,38,-990,207
05.10.2024 13:27:17:447,93,2,0,1,129469,100323,139612,38,-989,208
05.10.2024 13:27:17:451,94,2,0,1,129467,100330,139608,38,-988,207
05.10.2024 13:27:17:455,95,2,0,1,129467,100331,139604,37,-988,202
05.10.2024 13:27:17:459,96,2,0,1,129469,100330,139609,36,-990,208
05.10.2024 13:27:17:463,97,2,0,1,129464,100336,139603,40,-989,208
05.10.2024 13:27:17:467,98,2,0,1,129461,100343,139603,40,-988,207
05.10.2024 13:27:17:471,99,2,0,1,129460,100348,139603,37,-991,209
05.10.2024 13:27:17:474,100,2,0,1,129465,100346,139605,35,-992,206
05.10.2024 13:27:17:478,101,2,0,1,129462,100351,139606,38,-989,207
05.10.2024 13:27:17:482,102,2,0,1,129460,100346,139602,40,-995,207
05.10.2024 13:27:17:486,103,2,0,1,129459,100360,139605,39,-994,208
05.10.2024 13:27:17:490,104,2,0,1,129460,100355,139604,40,-993,209
05.10.2024 13:27:17:494,105,2,0,1,129464,100356,139596,39,-992,211
05.10.2024 13:27:17:498,106,2,0,1,129462,100365,139601,37,-990,211
05.10.2024 13:27:17:502,107,2,0,1,129458,100370,139604,34,-989,213
05.10.2024 13:27:17:506,108,2,0,1,129461,100375,139594,36,-988,205
05.10.2024 13:27:17:510,109,2,0,1,129463,100367,139589,40,-994,203
05.10.2024 13:27:17:513,110,2,0,1,129456,100369,139593,38,-993,209
05.10.2024 13:27:17:517,111,2,0,1,129459,100382,139604,33,-988,210
05.10.2024 13:27:17:521,112,2,0,1,129457,100379,139599,38,-991,205
05.10.2024 13:27:17:525,113,2,0,1,129456,100381,139587,36,-989,208
05.10.2024 13:27:17:529,114,2,0,1,129460,100385,139589,37,-989,210
05.10.2024 13:27:17:533,115,2,0,1,129460,100383,139587,40,-991,206
05.10.2024 13:27:17:537,116,2,0,1,129455,100387,139583,38,-990,208
05.10.2024 13:27:17:541,117,2,0,1,129456,100383,139589,40,-989,213
05.10.2024 13:27:17:545,118,2,0,1,129454,100397,139587,38,-990,210
05.10.2024 13:27:17:549,119,2,0,1,129455,100391,139579,38,-992,211
05.10.2024 13:27:17:552,120,2,0,1,129456,100395,139585,39,-993,208
05.10.2024 13:27:17:556,121,2,0,1,129458,100395,139587,40,-995,203
05.10.2024 13:27:17:560,122,2,0,1,129457,100397,139588,35,-988,207
05.10.2024 13:27:17:564,123,2,0,1,129452,100396,139585,39,-991,205
05.10.2024 13:27:17:568,124,2,0,1,129459,100400,139590,39,-988,209
05.10.2024 13:27:17:572,125,2,0,1,129456,100398,139588,37,-987,208
05.10.2024 13:27:17:576,126,2,0,1,129457,100408,139591,37,-987,209
05.10.2024 13:27:17:580,127,2,0,1,129454,100408,139583,40,-987,205
05.10.2024 13:27:17:584,128,2,0,1,129456,100409,139585,36,-988,206
05.10.2024 13:27:17:588,129,2,0,1,129454,100411,139585,44,-986,203
05.10.2024 13:27:17:591,130,2,0,1,129457,100416,139589,35,-984,207
05.10.2024 13:27:17:595,131,2,0,1,129456,100424,139583,38,-990,209
05.10.2024 13:27:17:599,132,2,0,1,129457,100430,139581,41,-989,206
05.10.2024 13:27:17:603,133,2,0,1,129456,100422,139584,39,-989,203
05.10.2024 13:27:17:607,134,2,0,1,129458,100424,139591,40,-987,207
05.10.2024 13:27:17:611,135,2,0,1,129459,100424,139590,38,-987,210
05.10.2024 13:27:17:615,136,2,0,1,129455,100429,139588,38,-991,206
05.10.2024 13:27:17:619,137,2,0,1,129457,100430,139586,40,-992,208
05.10.2024 13:27:17:623,138,2,0,1,129455,100442,139582,38,-988,210
05.10.2024 13:27:17:627,139,2,0,1,129457,100445,139592,39,-993,211
05.10.2024 13:27:17:630,140,2,0,1,129455,100443,139588,41,-992,210
05.10.2024 13:27:17:634,141,2,0,1,129456,100446,139591,37,-994,207
05.10.2024 13:27:17:638,142,2,0,1,129453,100450,139590,39,-992,205
05.10.2024 13:27:17:642,143,2,0,1,129456,100452,139589,36,-987,212
05.10.2024 13:27:17:646,144,2,0,1,129461,100462,139589,39,-995,210
05.10.2024 13:27:17:650,145,2,0,1,129460,100462,139595,35,-994,206
05.10.2024 13:27:17:654,146,2,0,1,129460,100477,139586,40,-993,206
05.10.2024 13:27:17:658,147,2,0,1,129460,100475,139591,42,-993,213
05.10.2024 13:27:17:662,148,2,0,1,129464,100474,139594,39,-994,210
05.10.2024 13:27:17:666,149,2,0,1,129459,100489,139595,40,-994,209
05.10.2024 13:27:17:669,150,2,0,1,129467,100482,139594,40,-993,211
05.10.2024 13:27:17:673,151,2,0,1,129458,100487,139592,41,-994,212
05.10.2024 13:27:17:677,152,2,0,1,129457,100488,139594,43,-993,207
05.10.2024 13:27:17:681,153,2,0,1,129464,100495,139591,40,-987,209
05.10.2024 13:27:17:685,154,2,0,1,129463,100495,139588,40,-993,206
05.10.2024 13:27:17:689,155,2,0,1,129464,100504,139594,40,-987,205
05.10.2024 13:27:17:693,156,2,0,1,129463,100497,139595,41,-991,208
05.10.2024 13:27:17:697,157,2,0,1,129461,100506,139602,39,-990,208
05.10.2024 13:27:17:701,158,2,0,1,129464,100506,139598,40,-992,210
05.10.2024 13:27:17:705,159,2,0,1,129468,100509,139603,41,-990,209
05.10.2024 13:27:17:708,160,2,0,1,129464,100520,139596,40,-991,207
05.10.2024 13:27:17:712,161,2,0,1,129467,100521,139599,41,-987,211
05.10.2024 13:27:17:716,162,2,0,1,129468,100523,139594,41,-989,208
05.10.2024 13:27:17:720,163,2,0,1,129467,100530,139602,44,-993,210
05.10.2024 13:27:17:724,164,2,0,1,129464,100530,139597,41,-985,206
05.10.2024 13:27:17:728,165,2,0,1,129468,100528,139599,41,-991,204
05.10.2024 13:27:17:732,166,2,0,1,129466,100530,139596,42,-990,203
05.10.2024 13:27:17:736,167,2,0,1,129465,100526,139599,39,-992,208
05.10.2024 13:27:17:740,168,2,0,1,129463,100524,139581,42,-991,210
05.10.2024 13:27:17:744,169,2,0,1,129457,100527,139580,37,-989,206
05.10.2024 13:27:17:747,170,2,0,1,129456,100514,139574,39,-989,207
05.10.2024 13:27:17:751,171,2,0,1,129451,100513,139567,40,-991,208
05.10.2024 13:27:17:755,172,2,0,1,129453,100516,139559,39,-988,206
05.10.2024 13:27:17:759,173,2,0,1,129451,100507,139553,35,-988,209
05.10.2024 13:27:17:763,174,2,0,1,129450,100506,139544,34,-991,204
05.10.2024 13:27:17:767,175,2,0,1,129451,100489,139540,38,-990,207
05.10.2024 13:27:17:771,176,2,0,1,129444,100489,139536,38,-989,207
05.10.2024 13:27:17:775,177,2,0,1,129441,100481,139532,40,-987,208
05.10.2024 13:27:17:779,178,2,0,1,129444,100472,139525,37,-989,204
05.10.2024 13:27:17:783,179,2,0,1,129437,100458,139519,33,-988,206
05.10.2024 13:27:17:786,180,2,0,1,129434,100442,139518,37,-988,204
05.10.2024 13:27:17:790,181,2,0,1,129438,100434,139513,35,-989,203
05.10.2024 13:27:17:794,182,2,0,1,129438,100424,139505,39,-989,203
05.10.2024 13:27:17:798,183,2,0,1,129435,100418,139507,39,-987,205
05.10.2024 13:27:17:802,184,2,0,1,129437,100408,139512,34,-990,206
05.10.2024 13:27:17:806,185,2,0,1,129433,100396,139499,36,-989,206
05.10.2024 13:27:17:810,186,2,0,1,129441,100382,139496,35,-988,208
05.10.2024 13:27:17:814,187,2,0,1,129434,100373,139488,34,-991,203
05.10.2024 13:27:17:818,188,2,0,1,129432,100364,139489,33,-994,200
05.10.2024 13:27:17:822,189,2,0,1,129431,100361,139485,40,-993,203
05.10.2024 13:27:17:825,190,2,0,1,129431,100348,139486,40,-992,203
05.10.2024 13:27:17:829,191,2,0,1,129429,100347,139486,35,-991,203
05.10.2024 13:27:17:833,192,2,0,1,129432,100334,139482,38,-993,207
05.10.2024 13:27:17:837,193,2,0,1,129430,100328,139480,39,-991,205
05.10.2024 13:27:17:841,194,2,0,1,129432,100317,139480,39,-992,205
05.10.2024 13:27:17:845,195,2,0,1,129434,100322,139481,37,-994,206
05.10.2024 13:27:17:849,196,2,0,1,129430,100317,139478,38,-991,206
05.10.2024 13:27:17:853,197,2,0,1,129433,100307,139483,40,-990,206
05.10.2024 13:27:17:857,198,2,0,1,129435,100303,139478,39,-991,211
05.10.2024 13:27:17:861,199,2,0,1,129428,100305,139484,39,-991,210
05.10.2024 13:27:17:864,200,2,0,1,129435,100287,139481,39,-994,206
05.10.2024 13:27:17:868,201,2,0,1,129437,100298,139477,40,-990,205
05.10.2024 13:27:17:872,202,2,0,1,129433,100292,139481,37,-991,208
05.10.2024 13:27:17:876,203,2,0,1,129435,100281,139476,40,-993,207
05.10.2024 13:27:17:880,204,2,0,1,129432,100291,139476,37,-990,206
05.10.2024 13:27:17:884,205,2,0,1,129434,100279,139480,39,-990,206
05.10.2024 13:27:17:888,206,2,0,1,129433,100286,139476,34,-993,210
05.10.2024 13:27:17:892,207,2,0,1,129437,100286,139483,39,-987,205
05.10.2024 13:27:17:896,208,2,0,1,129439,100276,139481,34,-989,205
05.10.2024 13:27:17:900,209,2,0,1,129434,100285,139478,38,-987,211
05.10.2024 13:27:17:903,210,2,0,1,129439,100279,139482,38,-988,206
05.10.2024 13:27:17:907,211,2,0,1,129440,100274,139487,36,-988,204
05.10.2024 13:27:17:911,212,2,0,1,129440,100284,139482,36,-987,212
05.10.2024 13:27:17:915,213,2,0,1,129438,100284,139487,38,-985,207
05.10.2024 13:27:17:919,214,2,0,1,129435,100285,139483,36,-988,209
05.10.2024 13:27:17:923,215,2,0,1,129444,100282,139487,36,-991,208
05.10.2024 13:27:17:927,216,2,0,1,129441,100279,139495,36,-984,210
05.10.2024 13:27:17:931,217,2,0,1,129445,100292,139494,41,-986,207
05.10.2024 13:27:17:935,218,2,0,1,129446,100283,139494,40,-986,214
05.10.2024 13:27:17:939,219,2,0,1,129450,100286,139498,39,-991,206
05.10.2024 13:27:17:942,220,2,0,1,129445,100284,139502,37,-985,214
05.10.2024 13:27:17:946,221,2,0,1,129448,100293,139501,34,-988,212
05.10.2024 13:27:17:950,222,2,0,1,129448,100305,139502,37,-988,204
05.10.2024 13:27:17:954,223,2,0,1,129450,100307,139499,37,-990,208
05.10.2024 13:27:17:958,224,2,0,1,129458,100310,139506,39,-992,208
05.10.2024 13:27:17:962,225,2,0,1,129452,100315,139508,35,-992,203
05.10.2024 13:27:17:966,226,2,0,1,129456,100312,139510,35,-990,205
05.10.2024 13:27:17:970,227,2,0,1,129458,100318,139506,40,-991,203
05.10.2024 13:27:17:974,228,2,0,1,129458,100315,139510,36,-994,205
05.10.2024 13:27:17:978,229,2,0,1,129457,100313,139511,35,-994,209
05.10.2024 13:27:17:981,230,2,0,1,129459,100328,139517,38,-996,207
05.10.2024 13:27:17:985,231,2,0,1,129463,100327,139511,39,-995,211
05.10.2024 13:27:17:989,232,2,0,1,129460,100333,139510,39,-993,206
05.10.2024 13:27:17:993,233,2,0,1,129467,100329,139516,37,-999,211
05.10.2024 13:27:17:997,234,2,0,1,129464,100338,139513,34,-994,206
05.10.2024 13:27:18:1,235,2,0,1,129463,100345,139517,36,-994,204
05.10.2024 13:27:18:5,236,2,0,1,129466,100341,139517,38,-993,209
05.10.2024 13:27:18:9,237,2,0,1,129471,100349,139519,35,-993,206
05.10.2024 13:27:18:13,238,2,0,1,129469,100346,139513,34,-994,201
05.10.2024 13:27:18:17,239,2,0,1,129468,100355,139515,37,-991,205
05.10.2024 13:27:18:20,240,2,0,1,129472,100349,139517,35,-990,205
05.10.2024 13:27:18:24,241,2,0,1,129469,100347,139521,38,-989,208
05.10.2024 13:27:18:28,242,2,0,1,129471,100348,139509,37,-989,205
05.10.2024 13:27:18:32,243,2,0,1,129469,100356,139515,40,-986,208
05.10.2024 13:27:18:36,244,2,0,1,129475,100353,139512,37,-991,206
05.10.2024 13:27:18:40,245,2,0,1,129477,100353,139516,35,-988,210
05.10.2024 13:27:18:44,246,2,0,1,129469,100348,139505,37,-987,206
05.10.2024 13:27:18:48,247,2,0,1,129474,100359,139510,35,-986,205
05.10.2024 13:27:18:52,248,2,0,1,129475,100352,139501,33,-990,205
05.10.2024 13:27:18:56,249,2,0,1,129474,100358,139506,34,-990,203
05.10.2024 13:27:18:59,250,2,0,1,129475,100362,139503,35,-985,205
05.10.2024 13:27:18:63,251,2,0,1,129475,100356,139502,32,-986,203
05.10.2024 13:27:18:67,252,2,0,1,129470,100354,139510,38,-989,202
05.10.2024 13:27:18:71,253,2,0,1,129474,100361,139503,32,-988,202
05.10.2024 13:27:18:75,254,2,0,1,129473,100356,139498,40,-991,205
05.10.2024 13:27:18:79,255,2,0,1,129477,100348,139499,37,-987,205
05.10.2024 13:27:18:83,256,2,0,1,129473,100344,139501,36,-992,208
05.10.2024 13:27:18:87,257,2,0,1,129473,100345,139504,35,-991,204
05.10.2024 13:27:18:91,258,2,0,1,129475,100340,139496,37,-993,206
05.10.2024 13:27:18:95,259,2,0,1,129478,100354,139503,40,-992,210
05.10.2024 13:27:18:98,260,2,0,1,129478,100349,139503,35,-991,205
05.10.2024 13:27:18:102,261,2,0,1,129479,100344,139501,40,-992,204
05.10.2024 13:27:18:106,262,2,0,1,129475,100345,139501,33,-991,207
05.10.2024 13:27:18:110,263,2,0,1,129482,100342,139499,38,-994,209
05.10.2024 13:27:18:114,264,2,0,1,129478,100341,139501,40,-993,209
05.10.2024 13:27:18:118,265,2,0,1,129474,100351,139493,38,-993,203
05.10.2024 13:27:18:122,266,2,0,1,129475,100341,139499,34,-994,204
05.10.2024 13:27:18:126,267,2,0,1,129483,100334,139503,33,-996,206
05.10.2024 13:27:18:130,268,2,0,1,129481,100354,139502,37,-988,205
05.10.2024 13:27:18:134,269,2,0,1,129485,100343,139500,33,-992,203
05.10.2024 13:27:18:137,270,2,0,1,129482,100346,139504,35,-995,203
05.10.2024 13:27:18:141,271,2,0,1,129485,100346,139511,38,-994,204
05.10.2024 13:27:18:145,272,2,0,1,129487,100346,139508,36,-991,206
05.10.2024 13:27:18:149,273,2,0,1,129484,100351,139508,36,-992,209
05.10.2024 13:27:18:153,274,2,0,1,129486,100354,139511,34,-987,203
05.10.2024 13:27:18:157,275,2,0,1,129491,100353,139513,40,-990,206
05.10.2024 13:27:18:161,276,2,0,1,129490,100360,139514,37,-989,205
05.10.2024 13:27:18:165,277,2,0,1,129488,100366,139510,34,-987,207
05.10.2024 13:27:18:169,278,2,0,1,129494,100365,139516,37,-985,206
05.10.2024 13:27:18:173,279,2,0,1,129490,100358,139516,36,-990,208
05.10.2024 13:27:18:176,280,2,0,1,129494,100365,139514,36,-987,203
05.10.2024 13:27:18:180,281,2,0,1,129494,100365,139518,35,-991,203
05.10.2024 13:27:18:184,282,2,0,1,129495,100372,139516,32,-990,209
05.10.2024 13:27:18:188,283,2,0,1,129490,100376,139517,37,-986,203
05.10.2024 13:27:18:192,284,2,0,1,129495,100374,139522,35,-987,204
05.10.2024 13:27:18:196,285,2,0,1,129497,100379,139518,35,-987,204
05.10.2024 13:27:18:200,286,2,0,1,129497,100372,139524,33,-993,211
05.10.2024 13:27:18:204,287,2,0,1,129500,100375,139519,31,-993,208
05.10.2024 13:27:18:208,288,2,0,1,129497,100387,139518,34,-994,203
05.10.2024 13:27:18:212,289,2,0,1,129497,100396,139529,35,-993,204
05.10.2024 13:27:18:215,290,2,0,1,129496,100385,139528,31,-991,203
05.10.2024 13:27:18:219,291,2,0,1,129499,100399,139526,34,-990,209
05.10.2024 13:27:18:223,292,2,0,1,129498,100391,139527,34,-992,206
05.10.2024 13:27:18:227,293,2,0,1,129501,100392,139525,31,-989,204
05.10.2024 13:27:18:231,294,2,0,1,129504,100408,139529,29,-992,209
05.10.2024 13:27:18:235,295,2,0,1,129500,100397,139534,27,-992,208
05.10.2024 13:27:18:239,296,2,0,1,129505,100409,139526,30,-992,203
05.10.2024 13:27:18:243,297,2,0,1,129508,100406,139530,31,-991,205
05.10.2024 13:27:18:247,298,2,0,1,129511,100410,139535,29,-990,210
05.10.2024 13:27:18:251,299,2,0,1,129507,100420,139530,29,-989,208
05.10.2024 13:27:18:254,300,2,0,1,129507,100425,139535,31,-989,203
05.10.2024 13:27:18:258,301,2,0,1,129510,100425,139537,29,-992,203
05.10.2024 13:27:18:262,302,2,0,1,129509,100431,139539,30,-990,206
05.10.2024 13:27:18:266,303,2,0,1,129510,100426,139540,27,-990,207
05.10.2024 13:27:18:270,304,2,0,1,129511,100437,139539,29,-993,203
05.10.2024 13:27:18:274,305,2,0,1,129515,100438,139545,31,-995,206
05.10.2024 13:27:18:278,306,2,0,1,129512,100442,139537,31,-990,210
05.10.2024 13:27:18:282,307,2,0,1,129511,100449,139536,32,-989,207
05.10.2024 13:27:18:286,308,2,0,1,129512,100453,139545,31,-989,209
05.10.2024 13:27:18:290,309,2,0,1,129516,100454,139545,35,-987,204
05.10.2024 13:27:18:293,310,2,0,1,129516,100459,139545,35,-986,208
05.10.2024 13:27:18:297,311,2,0,1,129521,100460,139547,37,-982,207
05.10.2024 13:27:18:301,312,2,0,1,129526,100469,139547,31,-990,207
05.10.2024 13:27:18:305,313,2,0,1,129517,100465,139554,32,-990,206
05.10.2024 13:27:18:309,314,2,0,1,129518,100470,139550,30,-986,207
05.10.2024 13:27:18:313,315,2,0,1,129527,100480,139555,32,-991,205
05.10.2024 13:27:18:317,316,2,0,1,129527,100479,139550,35,-990,209
05.10.2024 13:27:18:321,317,2,0,1,129522,100489,139551,31,-987,204
05.10.2024 13:27:18:325,318,2,0,1,129522,100482,139550,32,-988,203
05.10.2024 13:27:18:329,319,2,0,1,129522,100487,139555,29,-989,208
05.10.2024 13:27:18:332,320,2,0,1,129523,100497,139553,34,-991,209
05.10.2024 13:27:18:336,321,2,0,1,129525,100493,139547,31,-989,202
05.10.2024 13:27:18:340,322,2,0,1,129525,100490,139555,30,-995,201
05.10.2024 13:27:18:344,323,2,0,1,129529,100491,139553,32,-993,204
05.10.2024 13:27:18:348,324,2,0,1,129527,100497,139553,33,-988,203
05.10.2024 13:27:18:352,325,2,0,1,129528,100508,139555,34,-993,205
05.10.2024 13:27:18:356,326,2,0,1,129529,100506,139560,31,-995,204
05.10.2024 13:27:18:360,327,2,0,1,129526,100507,139556,35,-994,203
05.10.2024 13:27:18:364,328,2,0,1,129530,100527,139562,31,-989,206
05.10.2024 13:27:18:368,329,2,0,1,129529,100519,139563,33,-993,202
05.10.2024 13:27:18:371,330,2,0,1,129533,100517,139558,27,-995,201
05.10.2024 13:27:18:375,331,2,0,1,129537,100521,139559,30,-993,205
05.10.2024 13:27:18:379,332,2,0,1,129537,100523,139563,31,-994,204
05.10.2024 13:27:18:383,333,2,0,1,129535,100532,139565,33,-995,203
05.10.2024 13:27:18:387,334,2,0,1,129538,100532,139562,34,-991,204
05.10.2024 13:27:18:391,335,2,0,1,129541,100533,139565,33,-988,205
05.10.2024 13:27:18:395,336,2,0,1,129537,100544,139561,30,-989,203
05.10.2024 13:27:18:399,337,2,0,1,129539,100546,139565,33,-989,205
05.10.2024 13:27:18:403,338,2,0,1,129545,100542,139568,31,-988,204
05.10.2024 13:27:18:407,339,2,0,1,129540,100556,139566,34,-986,207
05.10.2024 13:27:18:410,340,2,0,1,129543,100552,139569,38,-992,204
05.10.2024 13:27:18:414,341,2,0,1,129538,100566,139570,33,-988,203
05.10.2024 13:27:18:418,342,2,0,1,129543,100562,139568,31,-988,201
05.10.2024 13:27:18:422,343,2,0,1,129544,100568,139572,33,-990,201
05.10.2024 13:27:18:426,344,2,0,1,129549,100572,139581,33,-987,199
05.10.2024 13:27:18:430,345,2,0,1,129556,100572,139574,36,-990,203
05.10.2024 13:27:18:434,346,2,0,1,129547,100583,139578,28,-992,202
05.10.2024 13:27:18:438,347,2,0,1,129551,100574,139574,33,-991,202
05.10.2024 13:27:18:442,348,2,0,1,129551,100588,139570,31,-990,204
05.10.2024 13:27:18:446,349,2,0,1,129546,100592,139575,28,-997,206
05.10.2024 13:27:18:449,350,2,0,1,129549,100592,139582,29,-992,208
05.10.2024 13:27:18:453,351,2,0,1,129551,100599,139577,37,-994,206
05.10.2024 13:27:18:457,352,2,0,1,129550,100598,139579,32,-989,208
05.10.2024 13:27:18:461,353,2,0,1,129549,100602,139582,37,-991,206
05.10.2024 13:27:18:465,354,2,0,1,129550,100604,139582,33,-993,203
05.10.2024 13:27:18:469,355,2,0,1,129544,100614,139579,29,-997,207
05.10.2024 13:27:18:473,356,2,0,1,129544,100615,139580,33,-990,203
05.10.2024 13:27:18:477,357,2,0,1,129543,100621,139575,34,-993,203
05.10.2024 13:27:18:481,358,2,0,1,129536,100616,139579,33,-992,205
05.10.2024 13:27:18:485,359,2,0,1,129540,100639,139580,31,-993,205
05.10.2024 13:27:18:488,360,2,0,1,129536,100627,139576,31,-995,206
05.10.2024 13:27:18:492,361,2,0,1,129539,100638,139578,30,-992,210
05.10.2024 13:27:18:496,362,2,0,1,129543,100638,139583,31,-991,207
05.10.2024 13:27:18:500,363,2,0,1,129538,100639,139581,33,-996,205
05.10.2024 13:27:18:504,364,2,0,1,129543,100637,139579,30,-991,206
05.10.2024 13:27:18:508,365,2,0,1,129542,100647,139576,36,-992,204
05.10.2024 13:27:18:512,366,2,0,1,129540,100638,139585,32,-994,204
05.10.2024 13:27:18:516,367,2,0,1,129539,100648,139580,31,-993,208
05.10.2024 13:27:18:520,368,2,0,1,129543,100652,139580,31,-994,203
05.10.2024 13:27:18:524,369,2,0,1,129541,100647,139572,34,-995,204
05.10.2024 13:27:18:527,370,2,0,1,129544,100654,139572,35,-991,203
05.10.2024 13:27:18:531,371,2,0,1,129539,100658,139574,29,-990,205
05.10.2024 13:27:18:535,372,2,0,1,129541,100660,139572,32,-991,206
05.10.2024 13:27:18:539,373,2,0,1,129544,100659,139561,34,-993,202
05.10.2024 13:27:18:543,374,2,0,1,129535,100652,139556,36,-991,204
05.10.2024 13:27:18:547,375,2,0,1,129536,100649,139554,33,-988,201
05.10.2024 13:27:18:551,376,2,0,1,129535,100647,139547,28,-989,199
05.10.2024 13:27:18:555,377,2,0,1,129533,100645,139544,32,-991,200
05.10.2024 13:27:18:559,378,2,0,1,129531,100635,139537,31,-992,204
05.10.2024 13:27:18:563,379,2,0,1,129527,100634,139537,31,-986,200
05.10.2024 13:27:18:566,380,2,0,1,129531,100629,139524,31,-983,200
05.10.2024 13:27:18:570,381,2,0,1,129521,100615,139523,29,-990,203
05.10.2024 13:27:18:574,382,2,0,1,129526,100604,139517,29,-994,204
05.10.2024 13:27:18:578,383,2,0,1,129522,100596,139513,29,-990,203
05.10.2024 13:27:18:582,384,2,0,1,129522,100589,139506,28,-987,201
05.10.2024 13:27:18:586,385,2,0,1,129517,100586,139507,28,-991,205
05.10.2024 13:27:18:590,386,2,0,1,129519,100562,139501,26,-991,204
05.10.2024 13:27:18:594,387,2,0,1,129521,100552,139492,31,-992,201
05.10.2024 13:27:18:598,388,2,0,1,129514,100548,139490,30,-994,200
05.10.2024 13:27:18:602,389,2,0,1,129518,100535,139487,29,-992,203
05.10.2024 13:27:18:605,390,2,0,1,129512,100522,139483,29,-994,203
05.10.2024 13:27:18:609,391,2,0,1,129519,100517,139478,30,-991,200
05.10.2024 13:27:18:613,392,2,0,1,129515,100505,139481,32,-997,203
05.10.2024 13:27:18:617,393,2,0,1,129510,100499,139474,29,-996,203
05.10.2024 13:27:18:621,394,2,0,1,129515,100496,139472,29,-990,199
05.10.2024 13:27:18:625,395,2,0,1,129510,100477,139468,30,-995,209
05.10.2024 13:27:18:629,396,2,0,1,129515,100474,139471,35,-993,204
05.10.2024 13:27:18:633,397,2,0,1,129514,100463,139470,27,-992,204
05.10.2024 13:27:18:637,398,2,0,1,129517,100462,139465,32,-996,202
05.10.2024 13:27:18:641,399,2,0,1,129511,100453,139465,28,-990,204
05.10.2024 13:27:18:644,400,2,0,1,129508,100454,139460,27,-997,203
05.10.2024 13:27:18:648,401,2,0,1,129510,100436,139457,32,-991,206
05.10.2024 13:27:18:652,402,2,0,1,129512,100438,139462,33,-987,208
05.10.2024 13:27:18:656,403,2,0,1,129513,100428,139454,34,-990,205
05.10.2024 13:27:18:660,404,2,0,1,129514,100427,139460,34,-988,208
05.10.2024 13:27:18:664,405,2,0,1,129510,100422,139463,32,-993,207
05.10.2024 13:27:18:668,406,2,0,1,129508,100414,139462,32,-994,206
05.10.2024 13:27:18:672,407,2,0,1,129514,100417,139461,31,-992,204
05.10.2024 13:27:18:676,408,2,0,1,129515,100411,139459,31,-993,207
05.10.2024 13:27:18:680,409,2,0,1,129507,100409,139466,34,-994,205
05.10.2024 13:27:18:683,410,2,0,1,129517,100411,139463,30,-995,207
05.10.2024 13:27:18:687,411,2,0,1,129511,100413,139458,31,-994,204
05.10.2024 13:27:18:691,412,2,0,1,129513,100404,139467,36,-992,205
05.10.2024 13:27:18:695,413,2,0,1,129513,100399,139468,30,-987,209
05.10.2024 13:27:18:699,414,2,0,1,129520,100412,139468,31,-985,203
05.10.2024 13:27:18:703,415,2,0,1,129521,100407,139470,32,-989,203
05.10.2024 13:27:18:707,416,2,0,1,129513,100396,139464,30,-985,203
05.10.2024 13:27:18:711,417,2,0,1,129519,100408,139465,27,-988,206
05.10.2024 13:27:18:715,418,2,0,1,129520,100393,139463,29,-988,206
05.10.2024 13:27:18:719,419,2,0,1,129521,100403,139469,34,-988,205
05.10.2024 13:27:18:722,420,2,0,1,129519,100402,139468,30,-989,203
05.10.2024 13:27:18:726,421,2,0,1,129520,100403,139464,31,-990,203
05.10.2024 13:27:18:730,422,2,0,1,129524,100410,139469,29,-994,199
05.10.2024 13:27:18:734,423,2,0,1,129518,100404,139471,34,-995,203
05.10.2024 13:27:18:738,424,2,0,1,129520,100399,139473,31,-990,203
05.10.2024 13:27:18:742,425,2,0,1,129521,100403,139473,31,-990,207
05.10.2024 13:27:18:746,426,2,0,1,129516,100414,139474,32,-989,200
05.10.2024 13:27:18:750,427,2,0,1,129523,100401,139477,30,-989,206
05.10.2024 13:27:18:754,428,2,0,1,129521,100407,139482,30,-993,205
05.10.2024 13:27:18:758,429,2,0,1,129527,100404,139483,30,-992,208
05.10.2024 13:27:18:761,430,2,0,1,129526,100411,139483,33,-989,204
05.10.2024 13:27:18:765,431,2,0,1,129529,100415,139488,30,-988,211
05.10.2024 13:27:18:769,432,2,0,1,129531,100404,139491,23,-987,207
05.10.2024 13:27:18:773,433,2,0,1,129532,100429,139485,30,-990,210
05.10.2024 13:27:18:777,434,2,0,1,129529,100420,139491,30,-993,207
05.10.2024 13:27:18:781,435,2,0,1,129534,100418,139488,32,-987,208
05.10.2024 13:27:18:785,436,2,0,1,129535,100429,139491,28,-989,207
05.10.2024 13:27:18:789,437,2,0,1,129535,100419,139491,28,-990,204
05.10.2024 13:27:18:793,438,2,0,1,129532,100428,139493,30,-990,203
05.10.2024 13:27:18:797,439,2,0,1,129532,100429,139496,30,-993,204
05.10.2024 13:27:18:800,440,2,0,1,129533,100427,139487,30,-992,205
05.10.2024 13:27:18:804,441,2,0,1,129531,100430,139484,32,-994,203
05.10.2024 13:27:18:808,442,2,0,1,129534,100432,139496,34,-995,202
05.10.2024 13:27:18:812,443,2,0,1,129535,100432,139503,27,-992,204
05.10.2024 13:27:18:816,444,2,0,1,129534,100439,139502,26,-994,203
05.10.2024 13:27:18:820,445,2,0,1,129538,100435,139490,28,-996,202
05.10.2024 13:27:18:824,446,2,0,1,129536,100436,139499,29,-991,205
05.10.2024 13:27:18:828,447,2,0,1,129537,100430,139492,26,-989,205
05.10.2024 13:27:18:832,448,2,0,1,129536,100430,139491,31,-998,202
05.10.2024 13:27:18:836,449,2,0,1,129537,100438,139487,30,-1001,201
05.10.2024 13:27:18:839,450,2,0,1,129538,100442,139492,32,-993,205
05.10.2024 13:27:18:843,451,2,0,1,129535,100434,139489,30,-997,203
05.10.2024 13:27:18:847,452,2,0,1,129530,100445,139489,29,-997,204
05.10.2024 13:27:18:851,453,2,0,1,129530,100440,139489,33,-998,199
05.10.2024 13:27:18:855,454,2,0,1,129536,100435,139483,29,-996,204
05.10.2024 13:27:18:859,455,2,0,1,129530,100438,139479,29,-994,202
05.10.2024 13:27:18:863,456,2,0,1,129534,100440,139484,31,-992,202
05.10.2024 13:27:18:867,457,2,0,1,129532,100437,139484,26,-996,202
05.10.2024 13:27:18:871,458,2,0,1,129531,100436,139482,29,-991,201
05.10.2024 13:27:18:875,459,2,0,1,129528,100443,139485,28,-991,204
05.10.2024 13:27:18:878,460,2,0,1,129531,100439,139481,29,-992,204
05.10.2024 13:27:18:882,461,2,0,1,129533,100438,139483,30,-990,204
05.10.2024 13:27:18:886,462,2,0,1,129528,100431,139479,30,-989,204
05.10.2024 13:27:18:890,463,2,0,1,129532,100441,139479,29,-992,206
05.10.2024 13:27:18:894,464,2,0,1,129529,100440,139485,32,-987,203
05.10.2024 13:27:18:898,465,2,0,1,129530,100439,139479,32,-993,200
05.10.2024 13:27:18:902,466,2,0,1,129524,100426,139478,29,-988,203
05.10.2024 13:27:18:906,467,2,0,1,129532,100430,139475,29,-990,204
05.10.2024 13:27:18:910,468,2,0,1,129531,100429,139480,32,-989,203
05.10.2024 13:27:18:914,469,2,0,1,129532,100432,139474,30,-993,207
05.10.2024 13:27:18:917,470,2,0,1,129533,100440,139480,27,-990,204
05.10.2024 13:27:18:921,471,2,0,1,129529,100436,139477,32,-989,207
05.10.2024 13:27:18:925,472,2,0,1,129527,100437,139478,29,-987,203
05.10.2024 13:27:18:929,473,2,0,1,129531,100433,139480,28,-991,207
05.10.2024 13:27:18:933,474,2,0,1,129529,100432,139484,30,-989,203
05.10.2024 13:27:18:937,475,2,0,1,129533,100432,139480,29,-987,202
05.10.2024 13:27:18:941,476,2,0,1,129532,100438,139480,27,-989,204
05.10.2024 13:27:18:945,477,2,0,1,129531,100422,139481,32,-991,206
05.10.2024 13:27:18:949,478,2,0,1,129532,100431,139486,30,-989,204
05.10.2024 13:27:18:953,479,2,0,1,129534,100437,139486,32,-992,203
05.10.2024 13:27:18:956,480,2,0,1,129527,100438,139487,30,-990,203
05.10.2024 13:27:18:960,481,2,0,1,129528,100432,139489,28,-990,203
05.10.2024 13:27:18:964,482,2,0,1,129531,100445,139494,33,-990,204
05.10.2024 13:27:18:968,483,2,0,1,129537,100435,139494,32,-988,206
05.10.2024 13:27:18:972,484,2,0,1,129537,100439,139492,28,-991,203
05.10.2024 13:27:18:976,485,2,0,1,129539,100446,139496,31,-989,203
05.10.2024 13:27:18:980,486,2,0,1,129534,100438,139493,30,-989,204
05.10.2024 13:27:18:984,487,2,0,1,129532,100455,139495,34,-991,203
05.10.2024 13:27:18:988,488,2,0,1,129542,100451,139494,33,-989,205
05.10.2024 13:27:18:992,489,2,0,1,129538,100457,139500,28,-990,202
05.10.2024 13:27:18:995,490,2,0,1,129533,100464,139497,29,-991,204
05.10.2024 13:27:18:999,491,2,0,1,129538,100460,139497,35,-992,209
05.10.2024 13:27:19:3,492,2,0,1,129541,100465,139497,32,-990,204
05.10.2024 13:27:19:7,493,2,0,1,129538,100469,139497,29,-991,203
05.10.2024 13:27:19:11,494,2,0,1,129535,100477,139494,33,-994,205
05.10.2024 13:27:19:15,495,2,0,1,129542,100478,139498,31,-994,201
05.10.2024 13:27:19:19,496,2,0,1,129542,100478,139503,28,-992,206
05.10.2024 13:27:19:23,497,2,0,1,129537,100482,139505,29,-997,204
05.10.2024 13:27:19:27,498,2,0,1,129542,100486,139503,33,-989,204
05.10.2024 13:27:19:31,499,2,0,1,129538,100481,139501,27,-994,202
05.10.2024 13:27:19:34,500,2,0,1,129538,100488,139507,30,-992,201
05.10.2024 13:27:19:38,501,2,0,1,129546,100489,139506,31,-995,203
05.10.2024 13:27:19:42,502,2,0,1,129541,100499,139505,32,-994,200
05.10.2024 13:27:19:46,503,2,0,1,129547,100490,139509,25,-989,202
05.10.2024 13:27:19:50,504,2,0,1,129546,100507,139508,30,-992,202
05.10.2024 13:27:19:54,505,2,0,1,129541,100498,139506,28,-992,203
05.10.2024 13:27:19:58,506,2,0,1,129543,100508,139514,28,-992,207
05.10.2024 13:27:19:62,507,2,0,1,129543,100514,139510,31,-994,202
05.10.2024 13:27:19:66,508,2,0,1,129549,100523,139512,22,-989,206
05.10.2024 13:27:19:70,509,2,0,1,129552,100519,139514,27,-989,201
05.10.2024 13:27:19:73,510,2,0,1,129548,100527,139515,24,-992,203
05.10.2024 13:27:19:77,511,2,0,1,129547,100522,139518,23,-993,204
05.10.2024 13:27:19:81,512,2,0,1,129549,100525,139523,26,-990,200
05.10.2024 13:27:19:85,513,2,0,1,129546,100533,139513,31,-989,203
05.10.2024 13:27:19:89,514,2,0,1,129551,100538,139523,26,-996,209
05.10.2024 13:27:19:93,515,2,0,1,129548,100536,139521,27,-991,208
05.10.2024 13:27:19:97,516,2,0,1,129550,100552,139523,32,-992,206
05.10.2024 13:27:19:101,517,2,0,1,129549,100546,139521,29,-996,201
05.10.2024 13:27:19:105,518,2,0,1,129553,100559,139519,32,-994,200
05.10.2024 13:27:19:109,519,2,0,1,129551,100563,139526,29,-994,202
05.10.2024 13:27:19:112,520,2,0,1,129551,100566,139516,24,-991,201
05.10.2024 13:27:19:116,521,2,0,1,129554,100563,139523,31,-994,205
05.10.2024 13:27:19:120,522,2,0,1,129556,100578,139530,31,-988,205
05.10.2024 13:27:19:124,523,2,0,1,129561,100573,139529,33,-993,204
05.10.2024 13:27:19:128,524,2,0,1,129554,100581,139525,35,-990,205
05.10.2024 13:27:19:132,525,2,0,1,129552,100576,139530,30,-988,206
05.10.2024 13:27:19:136,526,2,0,1,129557,100584,139533,29,-992,204
05.10.2024 13:27:19:140,527,2,0,1,129552,100587,139529,32,-991,204
05.10.2024 13:27:19:144,528,2,0,1,129555,100592,139538,30,-992,204
05.10.2024 13:27:19:148,529,2,0,1,129558,100598,139536,29,-991,203
05.10.2024 13:27:19:151,530,2,0,1,129558,100605,139532,28,-987,203
05.10.2024 13:27:19:155,531,2,0,1,129556,100602,139536,31,-990,203
05.10.2024 13:27:19:159,532,2,0,1,129559,100610,139535,32,-990,204
05.10.2024 13:27:19:163,533,2,0,1,129560,100618,139538,30,-990,205
05.10.2024 13:27:19:167,534,2,0,1,129560,100622,139535,34,-992,209
05.10.2024 13:27:19:171,535,2,0,1,129555,100614,139536,29,-985,203
05.10.2024 13:27:19:175,536,2,0,1,129557,100626,139539,27,-989,201
05.10.2024 13:27:19:179,537,2,0,1,129558,100626,139536,26,-989,209
05.10.2024 13:27:19:183,538,2,0,1,129561,100633,139536,25,-991,202
05.10.2024 13:27:19:187,539,2,0,1,129563,100646,139542,31,-987,204
05.10.2024 13:27:19:190,540,2,0,1,129563,100643,139541,26,-992,202
05.10.2024 13:27:19:194,541,2,0,1,129558,100644,139539,29,-990,204
05.10.2024 13:27:19:198,542,2,0,1,129563,100643,139543,29,-992,207
05.10.2024 13:27:19:202,543,2,0,1,129562,100648,139542,27,-994,206
05.10.2024 13:27:19:206,544,2,0,1,129567,100649,139541,32,-995,201
05.10.2024 13:27:19:210,545,2,0,1,129568,100660,139547,26,-992,203
05.10.2024 13:27:19:214,546,2,0,1,129565,100657,139547,31,-993,203
05.10.2024 13:27:19:218,547,2,0,1,129568,100665,139547,31,-991,203
05.10.2024 13:27:19:222,548,2,0,1,129570,100673,139547,32,-994,203
05.10.2024 13:27:19:226,549,2,0,1,129569,100677,139555,28,-995,205
05.10.2024 13:27:19:229,550,2,0,1,129576,100680,139552,27,-994,199
05.10.2024 13:27:19:233,551,2,0,1,129573,100680,139554,28,-997,198
05.10.2024 13:27:19:237,552,2,0,1,129571,100679,139555,29,-994,203
05.10.2024 13:27:19:241,553,2,0,1,129576,100687,139553,32,-993,203
05.10.2024 13:27:19:245,554,2,0,1,129574,100690,139564,30,-995,203
05.10.2024 13:27:19:249,555,2,0,1,129578,100698,139554,30,-990,201
05.10.2024 13:27:19:253,556,2,0,1,129573,100694,139559,29,-991,208
05.10.2024 13:27:19:257,557,2,0,1,129574,100706,139559,26,-991,204
05.10.2024 13:27:19:261,558,2,0,1,129575,100710,139559,35,-991,206
05.10.2024 13:27:19:265,559,2,0,1,129576,100715,139561,28,-990,202
05.10.2024 13:27:19:268,560,2,0,1,129580,100718,139563,35,-989,203
05.10.2024 13:27:19:272,561,2,0,1,129580,100724,139558,31,-987,204
05.10.2024 13:27:19:276,562,2,0,1,129584,100734,139568,32,-991,201
05.10.2024 13:27:19:280,563,2,0,1,129577,100731,139569,32,-986,200
05.10.2024 13:27:19:284,564,2,0,1,129582,100732,139573,29,-990,203
05.10.2024 13:27:19:288,565,2,0,1,129577,100739,139570,26,-985,201
05.10.2024 13:27:19:292,566,2,0,1,129580,100753,139573,31,-989,203
05.10.2024 13:27:19:296,567,2,0,1,129588,100754,139576,28,-989,202
05.10.2024 13:27:19:300,568,2,0,1,129580,100749,139578,30,-986,205
05.10.2024 13:27:19:304,569,2,0,1,129583,100758,139579,30,-991,207
05.10.2024 13:27:19:307,570,2,0,1,129581,100764,139577,30,-992,203
05.10.2024 13:27:19:311,571,2,0,1,129584,100772,139577,33,-988,205
05.10.2024 13:27:19:315,572,2,0,1,129585,100769,139580,28,-989,203
05.10.2024 13:27:19:319,573,2,0,1,129584,100782,139585,29,-992,206
05.10.2024 13:27:19:323,574,2,0,1,129587,100789,139584,26,-992,209
05.10.2024 13:27:19:327,575,2,0,1,129589,100787,139587,27,-988,207
05.10.2024 13:27:19:331,576,2,0,1,129589,100789,139590,29,-992,210
05.10.2024 13:27:19:335,577,2,0,1,129588,100799,139585,31,-995,210
05.10.2024 13:27:19:339,578,2,0,1,129587,100801,139583,30,-994,203
05.10.2024 13:27:19:343,579,2,0,1,129589,100802,139584,28,-994,203
05.10.2024 13:27:19:346,580,2,0,1,129591,100806,139582,25,-993,204
05.10.2024 13:27:19:350,581,2,0,1,129586,100803,139595,32,-993,204
05.10.2024 13:27:19:354,582,2,0,1,129588,100813,139593,30,-999,203
05.10.2024 13:27:19:358,583,2,0,1,129588,100809,139596,31,-998,203
05.10.2024 13:27:19:362,584,2,0,1,129591,100822,139599,32,-991,203
05.10.2024 13:27:19:366,585,2,0,1,129592,100834,139598,33,-995,207
05.10.2024 13:27:19:370,586,2,0,1,129594,100823,139592,30,-994,205
05.10.2024 13:27:19:374,587,2,0,1,129591,100832,139597,32,-996,200
05.10.2024 13:27:19:378,588,2,0,1,129592,100828,139605,28,-992,206
05.10.2024 13:27:19:382,589,2,0,1,129591,100838,139603,29,-992,203
05.10.2024 13:27:19:385,590,2,0,1,129593,100842,139604,31,-991,204
05.10.2024 13:27:19:389,591,2,0,1,129597,100850,139609,33,-992,203
05.10.2024 13:27:19:393,592,2,0,1,129593,100861,139603,36,-991,203
05.10.2024 13:27:19:397,593,2,0,1,129591,100856,139598,36,-991,197
05.10.2024 13:27:19:401,594,2,0,1,129592,100854,139593,31,-990,202
05.10.2024 13:27:19:405,595,2,0,1,129585,100852,139590,36,-995,203
05.10.2024 13:27:19:409,596,2,0,1,129584,100851,139584,33,-993,205
05.10.2024 13:27:19:413,597,2,0,1,129585,100854,139574,37,-990,203
05.10.2024 13:27:19:417,598,2,0,1,129575,100847,139566,33,-992,202
05.10.2024 13:27:19:421,599,2,0,1,129570,100841,139563,34,-989,203
05.10.2024 13:27:19:424,600,2,0,1,129574,100835,139551,33,-991,199
05.10.2024 13:27:19:428,601,2,0,1,129567,100838,139544,31,-989,203
05.10.2024 13:27:19:432,602,2,0,1,129561,100830,139531,31,-987,200
05.10.2024 13:27:19:436,603,2,0,1,129561,100818,139534,34,-988,203
05.10.2024 13:27:19:440,604,2,0,1,129560,100799,139524,30,-987,203
05.10.2024 13:27:19:444,605,2,0,1,129559,100795,139518,28,-986,203
05.10.2024 13:27:19:448,606,2,0,1,129552,100782,139518,27,-990,202
05.10.2024 13:27:19:452,607,2,0,1,129553,100770,139507,28,-984,201
05.10.2024 13:27:19:456,608,2,0,1,129551,100753,139504,25,-983,203
05.10.2024 13:27:19:460,609,2,0,1,129546,100735,139497,24,-989,203
05.10.2024 13:27:19:463,610,2,0,1,129547,100719,139489,26,-986,203
05.10.2024 13:27:19:467,611,2,0,1,129546,100719,139489,29,-991,205
05.10.2024 13:27:19:471,612,2,0,1,129546,100709,139480,28,-984,203
05.10.2024 13:27:19:475,613,2,0,1,129544,100687,139477,29,-988,207
05.10.2024 13:27:19:479,614,2,0,1,129543,100671,139475,22,-989,203
05.10.2024 13:27:19:483,615,2,0,1,129539,100663,139468,25,-992,202
05.10.2024 13:27:19:487,616,2,0,1,129537,100648,139469,21,-994,199
05.10.2024 13:27:19:491,617,2,0,1,129535,100646,139464,22,-991,207
05.10.2024 13:27:19:495,618,2,0,1,129537,100625,139464,25,-989,196
05.10.2024 13:27:19:499,619,2,0,1,129528,100619,139460,22,-988,204
05.10.2024 13:27:19:502,620,2,0,1,129530,100600,139456,24,-998,201
05.10.2024 13:27:19:506,621,2,0,1,129528,100582,139456,26,-997,203
05.10.2024 13:27:19:510,622,2,0,1,129527,100579,139455,28,-997,203
05.10.2024 13:27:19:514,623,2,0,1,129528,100576,139454,32,-997,203
05.10.2024 13:27:19:518,624,2,0,1,129526,100570,139454,26,-995,204
05.10.2024 13:27:19:522,625,2,0,1,129528,100557,139451,32,-998,203
05.10.2024 13:27:19:526,626,2,0,1,129522,100543,139449,27,-996,202
05.10.2024 13:27:19:530,627,2,0,1,129522,100538,139450,29,-994,207
05.10.2024 13:27:19:534,628,2,0,1,129527,100533,139453,27,-995,208
05.10.2024 13:27:19:538,629,2,0,1,129526,100533,139450,30,-995,203
05.10.2024 13:27:19:541,630,2,0,1,129526,100524,139454,26,-992,202
05.10.2024 13:27:19:545,631,2,0,1,129520,100519,139451,32,-994,207
05.10.2024 13:27:19:549,632,2,0,1,129528,100519,139447,27,-992,208
05.10.2024 13:27:19:553,633,2,0,1,129525,100499,139449,30,-988,203
05.10.2024 13:27:19:557,634,2,0,1,129525,100498,139452,30,-992,203
05.10.2024 13:27:19:561,635,2,0,1,129520,100497,139455,31,-989,204
05.10.2024 13:27:19:565,636,2,0,1,129520,100504,139447,27,-988,206
05.10.2024 13:27:19:569,637,2,0,1,129520,100487,139442,32,-984,204
05.10.2024 13:27:19:573,638,2,0,1,129522,100478,139447,34,-984,200
05.10.2024 13:27:19:577,639,2,0,1,129524,100483,139446,28,-984,200
05.10.2024 13:27:19:580,640,2,0,1,129525,100485,139442,32,-983,203
05.10.2024 13:27:19:584,641,2,0,1,129526,100482,139452,30,-986,202
05.10.2024 13:27:19:588,642,2,0,1,129525,100476,139445,35,-982,204
05.10.2024 13:27:19:592,643,2,0,1,129528,100470,139452,32,-987,203
05.10.2024 13:27:19:596,644,2,0,1,129523,100477,139450,30,-985,202
05.10.2024 13:27:19:600,645,2,0,1,129524,100468,139456,30,-985,203
05.10.2024 13:27:19:604,646,2,0,1,129521,100479,139447,29,-988,204
05.10.2024 13:27:19:608,647,2,0,1,129521,100463,139452,30,-990,205
05.10.2024 13:27:19:612,648,2,0,1,129525,100469,139449,31,-993,205
05.10.2024 13:27:19:616,649,2,0,1,129528,100463,139445,28,-993,205
05.10.2024 13:27:19:619,650,2,0,1,129525,100469,139447,31,-992,203
05.10.2024 13:27:19:623,651,2,0,1,129523,100456,139448,28,-990,204
05.10.2024 13:27:19:627,652,2,0,1,129526,100461,139448,31,-989,209
05.10.2024 13:27:19:631,653,2,0,1,129524,100459,139456,30,-992,204
05.10.2024 13:27:19:635,654,2,0,1,129527,100470,139455,32,-987,205
05.10.2024 13:27:19:639,655,2,0,1,129527,100467,139452,30,-991,209
05.10.2024 13:27:19:643,656,2,0,1,129527,100465,139455,26,-990,209
05.10.2024 13:27:19:647,657,2,0,1,129529,100468,139456,29,-992,204
05.10.2024 13:27:19:651,658,2,0,1,129527,100462,139455,33,-990,212
05.10.2024 13:27:19:655,659,2,0,1,129531,100456,139466,27,-989,204
05.10.2024 13:27:19:658,660,2,0,1,129529,100461,139463,28,-993,207
05.10.2024 13:27:19:662,661,2,0,1,129531,100463,139458,31,-989,207
05.10.2024 13:27:19:666,662,2,0,1,129530,100462,139463,26,-989,203
05.10.2024 13:27:19:670,663,2,0,1,129532,100452,139457,30,-997,203
05.10.2024 13:27:19:674,664,2,0,1,129529,100460,139458,35,-990,205
05.10.2024 13:27:19:678,665,2,0,1,129532,100456,139464,29,-991,205
05.10.2024 13:27:19:682,666,2,0,1,129538,100466,139461,25,-991,199
05.10.2024 13:27:19:686,667,2,0,1,129529,100466,139461,29,-994,198
05.10.2024 13:27:19:690,668,2,0,1,129534,100470,139462,29,-995,206
05.10.2024 13:27:19:694,669,2,0,1,129530,100467,139467,28,-991,203
05.10.2024 13:27:19:697,670,2,0,1,129540,100464,139461,28,-991,199
05.10.2024 13:27:19:701,671,2,0,1,129533,100475,139463,30,-991,203
05.10.2024 13:27:19:705,672,2,0,1,129537,100472,139462,30,-994,202
05.10.2024 13:27:19:709,673,2,0,1,129537,100472,139464,34,-995,204
05.10.2024 13:27:19:713,674,2,0,1,129530,100470,139464,30,-993,201
05.10.2024 13:27:19:717,675,2,0,1,129529,100466,139458,29,-997,204
05.10.2024 13:27:19:721,676,2,0,1,129530,100469,139454,28,-997,203
05.10.2024 13:27:19:725,677,2,0,1,129531,100464,139460,31,-991,203
05.10.2024 13:27:19:729,678,2,0,1,129532,100461,139460,29,-995,202
05.10.2024 13:27:19:733,679,2,0,1,129529,100461,139454,31,-992,206
05.10.2024 13:27:19:736,680,2,0,1,129530,100462,139450,30,-989,202
05.10.2024 13:27:19:740,681,2,0,1,129522,100452,139451,30,-991,202
05.10.2024 13:27:19:744,682,2,0,1,129528,100456,139454,27,-989,203
05.10.2024 13:27:19:748,683,2,0,1,129523,100463,139454,33,-988,203
05.10.2024 13:27:19:752,684,2,0,1,129526,100454,139452,33,-990,203
05.10.2024 13:27:19:756,685,2,0,1,129529,100443,139452,33,-994,203
05.10.2024 13:27:19:760,686,2,0,1,129529,100445,139447,32,-989,203
05.10.2024 13:27:19:764,687,2,0,1,129526,100434,139452,28,-996,203
05.10.2024 13:27:19:768,688,2,0,1,129526,100445,139445,33,-990,206
05.10.2024 13:27:19:772,689,2,0,1,129523,100440,139449,29,-993,203
05.10.2024 13:27:19:775,690,2,0,1,129528,100428,139442,28,-991,203
05.10.2024 13:27:19:779,691,2,0,1,129528,100437,139443,31,-993,205
05.10.2024 13:27:19:783,692,2,0,1,129523,100431,139444,33,-989,202
05.10.2024 13:27:19:787,693,2,0,1,129526,100421,139447,31,-993,200
05.10.2024 13:27:19:791,694,2,0,1,129523,100425,139444,31,-991,202
05.10.2024 13:27:19:795,695,2,0,1,129524,100423,139441,31,-991,204
05.10.2024 13:27:19:799,696,2,0,1,129522,100411,139438,36,-987,203
05.10.2024 13:27:19:803,697,2,0,1,129526,100412,139441,32,-990,205
05.10.2024 13:27:19:807,698,2,0,1,129528,100421,139439,30,-989,203
05.10.2024 13:27:19:811,699,2,0,1,129520,100415,139443,30,-992,206
05.10.2024 13:27:19:814,700,2,0,1,129530,100415,139448,31,-991,203
05.10.2024 13:27:19:818,701,2,0,1,129524,100411,139446,27,-990,200
05.10.2024 13:27:19:822,702,2,0,1,129530,100414,139446,28,-990,198
05.10.2024 13:27:19:826,703,2,0,1,129526,100416,139445,32,-993,201
05.10.2024 13:27:19:830,704,2,0,1,129524,100415,139446,31,-994,203
05.10.2024 13:27:19:834,705,2,0,1,129530,100419,139448,31,-992,201
05.10.2024 13:27:19:838,706,2,0,1,129527,100413,139447,30,-990,202
05.10.2024 13:27:19:842,707,2,0,1,129530,100411,139451,32,-990,201
05.10.2024 13:27:19:846,708,2,0,1,129528,100414,139451,32,-993,205
05.10.2024 13:27:19:850,709,2,0,1,129528,100414,139450,32,-991,206
05.10.2024 13:27:19:853,710,2,0,1,129528,100413,139453,26,-994,205
05.10.2024 13:27:19:857,711,2,0,1,129528,100412,139453,33,-993,201
05.10.2024 13:27:19:861,712,2,0,1,129526,100420,139449,28,-994,204
05.10.2024 13:27:19:865,713,2,0,1,129529,100420,139454,32,-992,199
05.10.2024 13:27:19:869,714,2,0,1,129528,100417,139455,31,-997,203
05.10.2024 13:27:19:873,715,2,0,1,129535,100422,139454,31,-992,202
05.10.2024 13:27:19:877,716,2,0,1,129528,100413,139458,33,-994,204
05.10.2024 13:27:19:881,717,2,0,1,129531,100423,139455,26,-993,202
05.10.2024 13:27:19:885,718,2,0,1,129530,100420,139454,27,-993,205
05.10.2024 13:27:19:889,719,2,0,1,129526,100425,139457,28,-995,206
05.10.2024 13:27:19:892,720,2,0,1,129537,100429,139457,30,-989,206
05.10.2024 13:27:19:896,721,2,0,1,129530,100425,139465,28,-986,204
05.10.2024 13:27:19:900,722,2,0,1,129532,100433,139462,30,-993,204
05.10.2024 13:27:19:904,723,2,0,1,129529,100429,139464,33,-990,204
05.10.2024 13:27:19:908,724,2,0,1,129529,100432,139463,28,-994,202
05.10.2024 13:27:19:912,725,2,0,1,129535,100433,139465,34,-995,203
05.10.2024 13:27:19:916,726,2,0,1,129535,100441,139463,30,-988,206
05.10.2024 13:27:19:920,727,2,0,1,129536,100452,139471,27,-990,205
05.10.2024 13:27:19:924,728,2,0,1,129538,100439,139470,26,-992,205
05.10.2024 13:27:19:928,729,2,0,1,129540,100446,139473,31,-988,202
05.10.2024 13:27:19:931,730,2,0,1,129536,100448,139472,32,-995,196
05.10.2024 13:27:19:935,731,2,0,1,129538,100447,139469,29,-988,200
05.10.2024 13:27:19:939,732,2,0,1,129534,100457,139474,30,-989,201
05.10.2024 13:27:19:943,733,2,0,1,129540,100458,139471,31,-989,205
05.10.2024 13:27:19:947,734,2,0,1,129541,100455,139479,24,-992,203
05.10.2024 13:27:19:951,735,2,0,1,129538,100464,139474,28,-987,201
05.10.2024 13:27:19:955,736,2,0,1,129540,100460,139469,28,-990,207
05.10.2024 13:27:19:959,737,2,0,1,129540,100455,139469,34,-989,202
05.10.2024 13:27:19:963,738,2,0,1,129539,100479,139475,33,-991,205
05.10.2024 13:27:19:967,739,2,0,1,129539,100473,139477,28,-988,204
05.10.2024 13:27:19:970,740,2,0,1,129533,100462,139480,30,-990,203
05.10.2024 13:27:19:974,741,2,0,1,129537,100468,139480,31,-988,205
05.10.2024 13:27:19:978,742,2,0,1,129541,100473,139480,28,-995,204
05.10.2024 13:27:19:982,743,2,0,1,129543,100471,139485,32,-990,204
05.10.2024 13:27:19:986,744,2,0,1,129540,100485,139475,33,-989,204
05.10.2024 13:27:19:990,745,2,0,1,129544,100474,139471,31,-994,203
05.10.2024 13:27:19:994,746,2,0,1,129538,100481,139481,31,-991,202
05.10.2024 13:27:19:998,747,2,0,1,129540,100491,139483,33,-989,202
05.10.2024 13:27:20:2,748,2,0,1,129533,100484,139477,29,-989,204
05.10.2024 13:27:20:6,749,2,0,1,129541,100488,139478,32,-995,206
05.10.2024 13:27:20:9,750,2,0,1,129541,100493,139480,28,-993,203
05.10.2024 13:27:20:13,751,2,0,1,129538,100496,139477,29,-992,204
05.10.2024 13:27:20:17,752,2,0,1,129543,100497,139482,27,-994,206
05.10.2024 13:27:20:21,753,2,0,1,129540,100500,139482,31,-995,203
05.10.2024 13:27:20:25,754,2,0,1,129540,100507,139485,26,-992,204
05.10.2024 13:27:20:29,755,2,0,1,129539,100501,139483,27,-993,200
05.10.2024 13:27:20:33,756,2,0,1,129534,100514,139481,33,-994,201
05.10.2024 13:27:20:37,757,2,0,1,129537,100507,139484,28,-996,204
05.10.2024 13:27:20:41,758,2,0,1,129542,100518,139484,26,-992,203
05.10.2024 13:27:20:45,759,2,0,1,129531,100521,139494,29,-990,201
05.10.2024 13:27:20:48,760,2,0,1,129538,100514,139490,32,-991,204
05.10.2024 13:27:20:52,761,2,0,1,129540,100521,139486,28,-992,203
05.10.2024 13:27:20:56,762,2,0,1,129537,100523,139485,33,-990,203
05.10.2024 13:27:20:60,763,2,0,1,129537,100522,139493,30,-990,203
05.10.2024 13:27:20:64,764,2,0,1,129537,100526,139495,30,-990,207
05.10.2024 13:27:20:68,765,2,0,1,129539,100532,139489,33,-988,198
05.10.2024 13:27:20:72,766,2,0,1,129536,100534,139489,27,-989,203
05.10.2024 13:27:20:76,767,2,0,1,129541,100537,139493,32,-990,204
05.10.2024 13:27:20:80,768,2,0,1,129540,100538,139498,30,-992,203
05.10.2024 13:27:20:84,769,2,0,1,129536,100546,139482,31,-989,203
05.10.2024 13:27:20:87,770,2,0,1,129537,100543,139492,36,-992,204
05.10.2024 13:27:20:91,771,2,0,1,129537,100552,139485,38,-995,205
05.10.2024 13:27:20:95,772,2,0,1,129535,100545,139488,36,-990,203
05.10.2024 13:27:20:99,773,2,0,1,129535,100544,139492,39,-993,205
05.10.2024 13:27:20:103,774,2,0,1,129540,100549,139497,32,-990,199
05.10.2024 13:27:20:107,775,2,0,1,129535,100560,139492,39,-994,203
05.10.2024 13:27:20:111,776,2,0,1,129532,100559,139500,35,-991,203
05.10.2024 13:27:20:115,777,2,0,1,129534,100558,139490,37,-994,198
05.10.2024 13:27:20:119,778,2,0,1,129537,100558,139488,38,-994,201
05.10.2024 13:27:20:123,779,2,0,1,129534,100568,139494,37,-990,200
05.10.2024 13:27:20:126,780,2,0,1,129531,100561,139495,32,-990,203
05.10.2024 13:27:20:130,781,2,0,1,129529,100572,139499,33,-993,205
05.10.2024 13:27:20:134,782,2,0,1,129536,100577,139501,33,-994,203
05.10.2024 13:27:20:138,783,2,0,1,129529,100575,139492,31,-989,205
05.10.2024 13:27:20:142,784,2,0,1,129531,100588,139496,29,-989,203
05.10.2024 13:27:20:146,785,2,0,1,129532,100581,139497,27,-993,203
05.10.2024 13:27:20:150,786,2,0,1,129529,100591,139496,29,-989,206
05.10.2024 13:27:20:154,787,2,0,1,129530,100587,139499,31,-992,208
05.10.2024 13:27:20:158,788,2,0,1,129534,100592,139504,26,-990,207
05.10.2024 13:27:20:162,789,2,0,1,129538,100595,139504,29,-994,203
05.10.2024 13:27:20:165,790,2,0,1,129530,100588,139503,31,-994,204
05.10.2024 13:27:20:169,791,2,0,1,129531,100597,139506,28,-993,207
05.10.2024 13:27:20:173,792,2,0,1,129532,100589,139503,28,-995,206
05.10.2024 13:27:20:177,793,2,0,1,129528,100607,139509,29,-999,202
05.10.2024 13:27:20:181,794,2,0,1,129526,100605,139503,29,-998,204
05.10.2024 13:27:20:185,795,2,0,1,129525,100609,139511,31,-997,209
05.10.2024 13:27:20:189,796,2,0,1,129523,100611,139499,31,-998,209
05.10.2024 13:27:20:193,797,2,0,1,129525,100606,139505,33,-997,205
05.10.2024 13:27:20:197,798,2,0,1,129525,100615,139503,29,-993,205
05.10.2024 13:27:20:201,799,2,0,1,129524,100618,139506,33,-997,203
05.10.2024 13:27:20:204,800,2,0,1,129525,100619,139512,30,-989,203
05.10.2024 13:27:20:208,801,2,0,1,129523,100620,139512,32,-992,207
05.10.2024 13:27:20:212,802,2,0,1,129519,100628,139509,28,-991,208
05.10.2024 13:27:20:216,803,2,0,1,129519,100623,139509,31,-988,205
05.10.2024 13:27:20:220,804,2,0,1,129513,100623,139503,34,-986,206
05.10.2024 13:27:20:224,805,2,0,1,129510,100630,139503,32,-989,204
05.10.2024 13:27:20:228,806,2,0,1,129508,100630,139499,32,-986,207
05.10.2024 13:27:20:232,807,2,0,1,129503,100625,139496,31,-985,202
05.10.2024 13:27:20:236,808,2,0,1,129505,100629,139497,27,-987,208
05.10.2024 13:27:20:240,809,2,0,1,129503,100629,139496,29,-986,203
05.10.2024 13:27:20:243,810,2,0,1,129499,100631,139486,29,-989,206
05.10.2024 13:27:20:247,811,2,0,1,129496,100629,139484,31,-990,205
05.10.2024 13:27:20:251,812,2,0,1,129491,100620,139470,28,-989,204
05.10.2024 13:27:20:255,813,2,0,1,129485,100614,139471,27,-990,208
05.10.2024 13:27:20:259,814,2,0,1,129478,100608,139457,29,-992,206
05.10.2024 13:27:20:263,815,2,0,1,129475,100594,139453,28,-989,209
05.10.2024 13:27:20:267,816,2,0,1,129473,100584,139445,29,-991,203
05.10.2024 13:27:20:271,817,2,0,1,129469,100562,139438,27,-985,209
05.10.2024 13:27:20:275,818,2,0,1,129467,100561,139428,26,-989,206
05.10.2024 13:27:20:279,819,2,0,1,129465,100555,139429,27,-989,203
05.10.2024 13:27:20:282,820,2,0,1,129459,100542,139418,24,-983,203
05.10.2024 13:27:20:286,821,2,0,1,129454,100517,139413,26,-993,208
05.10.2024 13:27:20:290,822,2,0,1,129452,100516,139401,24,-996,205
05.10.2024 13:27:20:294,823,2,0,1,129446,100495,139398,25,-994,200
05.10.2024 13:27:20:298,824,2,0,1,129442,100481,139392,27,-990,208
05.10.2024 13:27:20:302,825,2,0,1,129442,100463,139383,28,-992,203
05.10.2024 13:27:20:306,826,2,0,1,129440,100449,139386,28,-991,205
05.10.2024 13:27:20:310,827,2,0,1,129445,100431,139376,29,-997,201
05.10.2024 13:27:20:314,828,2,0,1,129436,100417,139374,30,-989,203
05.10.2024 13:27:20:318,829,2,0,1,129436,100403,139372,26,-991,202
05.10.2024 13:27:20:321,830,2,0,1,129433,100391,139367,31,-996,204
05.10.2024 13:27:20:325,831,2,0,1,129427,100376,139363,30,-989,201
05.10.2024 13:27:20:329,832,2,0,1,129431,100364,139355,31,-996,205
05.10.2024 13:27:20:333,833,2,0,1,129431,100348,139362,30,-992,207
05.10.2024 13:27:20:337,834,2,0,1,129424,100344,139359,33,-993,203
05.10.2024 13:27:20:341,835,2,0,1,129428,100324,139356,30,-995,204
05.10.2024 13:27:20:345,836,2,0,1,129425,100309,139352,32,-994,205
05.10.2024 13:27:20:349,837,2,0,1,129426,100288,139344,30,-991,205
05.10.2024 13:27:20:353,838,2,0,1,129425,100294,139349,28,-993,205
05.10.2024 13:27:20:357,839,2,0,1,129420,100277,139345,31,-992,205
05.10.2024 13:27:20:360,840,2,0,1,129423,100276,139344,30,-991,205
05.10.2024 13:27:20:364,841,2,0,1,129416,100255,139345,30,-989,203
05.10.2024 13:27:20:368,842,2,0,1,129417,100248,139348,25,-991,208
05.10.2024 13:27:20:372,843,2,0,1,129416,100243,139346,30,-992,204
05.10.2024 13:27:20:376,844,2,0,1,129419,100233,139343,31,-994,204
05.10.2024 13:27:20:380,845,2,0,1,129414,100234,139336,29,-992,206
05.10.2024 13:27:20:384,846,2,0,1,129420,100226,139341,32,-990,207
05.10.2024 13:27:20:388,847,2,0,1,129409,100217,139340,28,-992,209
05.10.2024 13:27:20:392,848,2,0,1,129411,100210,139344,33,-994,203
05.10.2024 13:27:20:396,849,2,0,1,129412,100213,139340,36,-988,207
05.10.2024 13:27:20:399,850,2,0,1,129409,100198,139342,36,-982,205
05.10.2024 13:27:20:403,851,2,0,1,129412,100202,139340,34,-990,204
05.10.2024 13:27:20:407,852,2,0,1,129409,100190,139341,31,-986,206
05.10.2024 13:27:20:411,853,2,0,1,129408,100198,139342,33,-991,207
05.10.2024 13:27:20:415,854,2,0,1,129403,100189,139342,34,-988,204
05.10.2024 13:27:20:419,855,2,0,1,129405,100185,139337,32,-989,202
05.10.2024 13:27:20:423,856,2,0,1,129404,100190,139338,31,-989,201
05.10.2024 13:27:20:427,857,2,0,1,129409,100190,139343,33,-985,203
05.10.2024 13:27:20:431,858,2,0,1,129406,100187,139335,35,-994,204
05.10.2024 13:27:20:434,859,2,0,1,129402,100180,139337,35,-988,203
05.10.2024 13:27:20:438,860,2,0,1,129404,100180,139344,34,-985,205
05.10.2024 13:27:20:442,861,2,0,1,129401,100182,139341,38,-989,204
05.10.2024 13:27:20:446,862,2,0,1,129401,100179,139342,30,-992,208
05.10.2024 13:27:20:450,863,2,0,1,129398,100178,139347,39,-988,208
05.10.2024 13:27:20:454,864,2,0,1,129394,100177,139338,34,-990,208
05.10.2024 13:27:20:458,865,2,0,1,129397,100173,139340,39,-988,208
05.10.2024 13:27:20:462,866,2,0,1,129397,100174,139343,38,-987,205
05.10.2024 13:27:20:466,867,2,0,1,129397,100177,139348,37,-991,214
05.10.2024 13:27:20:470,868,2,0,1,129399,100179,139345,39,-990,205
05.10.2024 13:27:20:473,869,2,0,1,129397,100180,139336,33,-991,210
05.10.2024 13:27:20:477,870,2,0,1,129392,100172,139348,36,-991,209
05.10.2024 13:27:20:481,871,2,0,1,129393,100182,139345,35,-991,208
05.10.2024 13:27:20:485,872,2,0,1,129395,100178,139342,33,-992,206
05.10.2024 13:27:20:489,873,2,0,1,129397,100177,139347,38,-991,208
05.10.2024 13:27:20:493,874,2,0,1,129388,100173,139348,33,-992,208
05.10.2024 13:27:20:497,875,2,0,1,129393,100176,139348,37,-989,204
05.10.2024 13:27:20:501,876,2,0,1,129390,100180,139337,40,-992,201
05.10.2024 13:27:20:505,877,2,0,1,129390,100185,139345,40,-989,205
05.10.2024 13:27:20:509,878,2,0,1,129391,100185,139344,37,-990,204
05.10.2024 13:27:20:512,879,2,0,1,129389,100173,139345,39,-991,210
05.10.2024 13:27:20:516,880,2,0,1,129386,100182,139340,34,-990,209
05.10.2024 13:27:20:520,881,2,0,1,129385,100185,139343,34,-988,209
05.10.2024 13:27:20:524,882,2,0,1,129384,100179,139342,38,-991,207
05.10.2024 13:27:20:528,883,2,0,1,129381,100172,139341,37,-993,203
05.10.2024 13:27:20:532,884,2,0,1,129382,100177,139339,30,-990,204
05.10.2024 13:27:20:536,885,2,0,1,129383,100173,139339,35,-993,203
05.10.2024 13:27:20:540,886,2,0,1,129382,100173,139339,34,-996,208
05.10.2024 13:27:20:544,887,2,0,1,129375,100161,139332,31,-991,206
05.10.2024 13:27:20:548,888,2,0,1,129377,100170,139335,31,-989,205
05.10.2024 13:27:20:551,889,2,0,1,129373,100173,139338,31,-989,205
05.10.2024 13:27:20:555,890,2,0,1,129375,100164,139340,33,-991,204
05.10.2024 13:27:20:559,891,2,0,1,129373,100157,139335,37,-985,203
05.10.2024 13:27:20:563,892,2,0,1,129373,100164,139327,34,-988,207
05.10.2024 13:27:20:567,893,2,0,1,129369,100156,139331,38,-986,205
05.10.2024 13:27:20:571,894,2,0,1,129374,100153,139330,37,-987,207
05.10.2024 13:27:20:575,895,2,0,1,129374,100152,139329,37,-988,206
05.10.2024 13:27:20:579,896,2,0,1,129364,100144,139329,33,-987,209
05.10.2024 13:27:20:583,897,2,0,1,129367,100155,139325,34,-986,206
05.10.2024 13:27:20:587,898,2,0,1,129364,100149,139321,35,-987,207
05.10.2024 13:27:20:590,899,2,0,1,129355,100136,139320,35,-985,205
05.10.2024 13:27:20:594,900,2,0,1,129361,100135,139320,34,-987,206
05.10.2024 13:27:20:598,901,2,0,1,129360,100136,139315,33,-993,205
05.10.2024 13:27:20:602,902,2,0,1,129355,100135,139319,35,-988,208
05.10.2024 13:27:20:606,903,2,0,1,129351,100126,139316,38,-992,203
05.10.2024 13:27:20:610,904,2,0,1,129351,100121,139317,39,-993,206
05.10.2024 13:27:20:614,905,2,0,1,129354,100126,139311,33,-996,203
05.10.2024 13:27:20:618,906,2,0,1,129353,100110,139311,31,-994,207
05.10.2024 13:27:20:622,907,2,0,1,129347,100113,139310,35,-993,206
05.10.2024 13:27:20:626,908,2,0,1,129355,100113,139309,33,-992,207
05.10.2024 13:27:20:629,909,2,0,1,129346,100116,139311,29,-996,208
05.10.2024 13:27:20:633,910,2,0,1,129346,100113,139313,34,-993,207
05.10.2024 13:27:20:637,911,2,0,1,129352,100102,139315,32,-991,203
05.10.2024 13:27:20:641,912,2,0,1,129345,100107,139315,36,-991,207
05.10.2024 13:27:20:645,913,2,0,1,129348,100093,139310,35,-991,206
05.10.2024 13:27:20:649,914,2,0,1,129345,100105,139316,35,-989,203
05.10.2024 13:27:20:653,915,2,0,1,129345,100098,139311,34,-993,212
05.10.2024 13:27:20:657,916,2,0,1,129342,100104,139311,34,-995,207
05.10.2024 13:27:20:661,917,2,0,1,129338,100100,139310,30,-991,206
05.10.2024 13:27:20:665,918,2,0,1,129340,100096,139304,35,-992,203
05.10.2024 13:27:20:668,919,2,0,1,129336,100097,139307,37,-986,207
05.10.2024 13:27:20:672,920,2,0,1,129339,100099,139307,32,-994,205
05.10.2024 13:27:20:676,921,2,0,1,129337,100094,139304,39,-992,209
05.10.2024 13:27:20:680,922,2,0,1,129333,100096,139309,34,-991,206
05.10.2024 13:27:20:684,923,2,0,1,129336,100095,139312,32,-991,208
05.10.2024 13:27:20:688,924,2,0,1,129335,100101,139312,34,-994,207
05.10.2024 13:27:20:692,925,2,0,1,129331,100101,139310,33,-992,210
05.10.2024 13:27:20:696,926,2,0,1,129337,100101,139313,36,-990,207
05.10.2024 13:27:20:700,927,2,0,1,129333,100101,139307,31,-992,206
05.10.2024 13:27:20:704,928,2,0,1,129331,100107,139310,33,-993,206
05.10.2024 13:27:20:707,929,2,0,1,129330,100110,139314,35,-990,204
05.10.2024 13:27:20:711,930,2,0,1,129333,100106,139310,39,-990,205
05.10.2024 13:27:20:715,931,2,0,1,129330,100108,139318,36,-994,205
05.10.2024 13:27:20:719,932,2,0,1,129329,100108,139315,33,-989,209
05.10.2024 13:27:20:723,933,2,0,1,129325,100108,139314,32,-988,207
05.10.2024 13:27:20:727,934,2,0,1,129323,100103,139310,39,-988,207
05.10.2024 13:27:20:731,935,2,0,1,129323,100113,139311,40,-992,208
05.10.2024 13:27:20:735,936,2,0,1,129328,100122,139319,34,-988,203
05.10.2024 13:27:20:739,937,2,0,1,129323,100117,139309,40,-990,201
05.10.2024 13:27:20:743,938,2,0,1,129324,100120,139314,33,-989,203
05.10.2024 13:27:20:746,939,2,0,1,129322,100108,139315,34,-993,206
05.10.2024 13:27:20:750,940,2,0,1,129324,100123,139317,38,-992,208
05.10.2024 13:27:20:754,941,2,0,1,129321,100117,139309,37,-992,204
05.10.2024 13:27:20:758,942,2,0,1,129321,100124,139309,34,-994,205
05.10.2024 13:27:20:762,943,2,0,1,129322,100123,139319,35,-992,206
05.10.2024 13:27:20:766,944,2,0,1,129323,100125,139320,35,-993,203
05.10.2024 13:27:20:770,945,2,0,1,129318,100130,139316,32,-992,203
05.10.2024 13:27:20:774,946,2,0,1,129318,100126,139315,34,-993,204
05.10.2024 13:27:20:778,947,2,0,1,129322,100136,139318,34,-991,204
05.10.2024 13:27:20:782,948,2,0,1,129314,100140,139317,32,-994,204
05.10.2024 13:27:20:785,949,2,0,1,129318,100146,139315,36,-991,205
05.10.2024 13:27:20:789,950,2,0,1,129321,100138,139313,37,-991,203
05.10.2024 13:27:20:793,951,2,0,1,129313,100137,139321,37,-991,203
05.10.2024 13:27:20:797,952,2,0,1,129322,100144,139327,30,-991,209
05.10.2024 13:27:20:801,953,2,0,1,129314,100142,139321,34,-993,204
05.10.2024 13:27:20:805,954,2,0,1,129310,100146,139319,36,-992,205
05.10.2024 13:27:20:809,955,2,0,1,129314,100149,139319,40,-994,203
05.10.2024 13:27:20:813,956,2,0,1,129307,100156,139320,39,-993,203
05.10.2024 13:27:20:817,957,2,0,1,129313,100153,139317,40,-987,206
05.10.2024 13:27:20:821,958,2,0,1,129313,100161,139319,40,-989,209
05.10.2024 13:27:20:824,959,2,0,1,129307,100159,139323,40,-990,208
05.10.2024 13:27:20:828,960,2,0,1,129312,100158,139324,39,-991,208
05.10.2024 13:27:20:832,961,2,0,1,129312,100166,139321,40,-988,205
05.10.2024 13:27:20:836,962,2,0,1,129311,100176,139321,41,-992,208
05.10.2024 13:27:20:840,963,2,0,1,129306,100175,139318,38,-989,206
05.10.2024 13:27:20:844,964,2,0,1,129310,100173,139321,40,-990,209
05.10.2024 13:27:20:848,965,2,0,1,129309,100186,139322,41,-987,206
05.10.2024 13:27:20:852,966,2,0,1,129304,100179,139325,40,-986,203
05.10.2024 13:27:20:856,967,2,0,1,129309,100176,139323,39,-989,210
05.10.2024 13:27:20:860,968,2,0,1,129308,100175,139320,40,-992,206
05.10.2024 13:27:20:863,969,2,0,1,129306,100187,139323,41,-984,211
05.10.2024 13:27:20:867,970,2,0,1,129299,100173,139319,42,-987,206
05.10.2024 13:27:20:871,971,2,0,1,129301,100187,139327,42,-990,211
05.10.2024 13:27:20:875,972,2,0,1,129304,100187,139320,38,-987,207
05.10.2024 13:27:20:879,973,2,0,1,129301,100192,139330,39,-989,207
05.10.2024 13:27:20:883,974,2,0,1,129300,100196,139327,38,-992,204
05.10.2024 13:27:20:887,975,2,0,1,129300,100192,139328,40,-993,204
05.10.2024 13:27:20:891,976,2,0,1,129305,100194,139331,39,-990,205
05.10.2024 13:27:20:895,977,2,0,1,129303,100203,139326,40,-997,206
05.10.2024 13:27:20:899,978,2,0,1,129304,100206,139326,40,-993,206
05.10.2024 13:27:20:902,979,2,0,1,129296,100213,139319,36,-991,211
05.10.2024 13:27:20:906,980,2,0,1,129302,100211,139337,40,-989,208
05.10.2024 13:27:20:910,981,2,0,1,129296,100210,139330,40,-992,210
05.10.2024 13:27:20:914,982,2,0,1,129303,100217,139332,42,-993,207
05.10.2024 13:27:20:918,983,2,0,1,129301,100235,139329,42,-992,208
05.10.2024 13:27:20:922,984,2,0,1,129296,100227,139330,40,-993,207
05.10.2024 13:27:20:926,985,2,0,1,129304,100222,139331,41,-990,205
05.10.2024 13:27:20:930,986,2,0,1,129299,100215,139331,42,-988,210
05.10.2024 13:27:20:934,987,2,0,1,129293,100229,139332,39,-988,211
05.10.2024 13:27:20:938,988,2,0,1,129300,100236,139333,39,-993,206
05.10.2024 13:27:20:941,989,2,0,1,129295,100231,139326,40,-991,212
05.10.2024 13:27:20:945,990,2,0,1,129296,100231,139340,40,-988,210
05.10.2024 13:27:20:949,991,2,0,1,129300,100238,139330,40,-992,206
05.10.2024 13:27:20:953,992,2,0,1,129297,100249,139337,41,-988,211
05.10.2024 13:27:20:957,993,2,0,1,129298,100247,139335,40,-994,211
05.10.2024 13:27:20:961,994,2,0,1,129295,100238,139333,45,-986,213
05.10.2024 13:27:20:965,995,2,0,1,129295,100245,139338,40,-991,210
05.10.2024 13:27:20:969,996,2,0,1,129295,100248,139338,42,-993,209
05.10.2024 13:27:20:973,997,2,0,1,129295,100254,139336,43,-985,207
05.10.2024 13:27:20:977,998,2,0,1,129302,100249,139332,40,-990,213
05.10.2024 13:27:20:980,999,2,0,1,129298,100251,139336,40,-989,208
05.10.2024 13:27:20:984,1000,2,0,1,129296,100255,139338,42,-984,213
05.10.2024 13:27:20:988,1001,2,0,1,129295,100261,139340,41,-992,208
05.10.2024 13:27:20:992,1002,2,0,1,129294,100254,139337,40,-989,212
05.10.2024 13:27:20:996,1003,2,0,1,129290,100256,139327,40,-986,205
05.10.2024 13:27:21:0,1004,2,0,1,129296,100264,139324,40,-987,206
05.10.2024 13:27:21:4,1005,2,0,1,129291,100254,139314,41,-992,207
05.10.2024 13:27:21:8,1006,2,0,1,129287,100253,139317,42,-987,208
05.10.2024 13:27:21:12,1007,2,0,1,129286,100244,139311,37,-989,212
05.10.2024 13:27:21:16,1008,2,0,1,129281,100246,139304,35,-991,207
05.10.2024 13:27:21:19,1009,2,0,1,129282,100240,139300,40,-988,206
05.10.2024 13:27:21:23,1010,2,0,1,129276,100234,139296,37,-988,208
05.10.2024 13:27:21:27,1011,2,0,1,129275,100223,139289,43,-981,208
05.10.2024 13:27:21:31,1012,2,0,1,129270,100221,139281,36,-985,208
05.10.2024 13:27:21:35,1013,2,0,1,129268,100201,139279,35,-987,207
05.10.2024 13:27:21:39,1014,2,0,1,129267,100193,139272,38,-985,203
05.10.2024 13:27:21:43,1015,2,0,1,129265,100188,139267,35,-987,208
05.10.2024 13:27:21:47,1016,2,0,1,129264,100170,139262,39,-989,209
05.10.2024 13:27:21:51,1017,2,0,1,129258,100165,139256,38,-989,206
05.10.2024 13:27:21:55,1018,2,0,1,129256,100153,139247,38,-990,206
05.10.2024 13:27:21:58,1019,2,0,1,129256,100132,139247,32,-985,200
05.10.2024 13:27:21:62,1020,2,0,1,129253,100126,139238,35,-989,201
05.10.2024 13:27:21:66,1021,2,0,1,129256,100114,139241,39,-987,204
05.10.2024 13:27:21:70,1022,2,0,1,129254,100103,139239,37,-989,205
05.10.2024 13:27:21:74,1023,2,0,1,129255,100094,139235,39,-992,204
05.10.2024 13:27:21:78,1024,2,0,1,129249,100084,139232,38,-993,206
05.10.2024 13:27:21:82,1025,2,0,1,129249,100071,139233,34,-990,203
05.10.2024 13:27:21:86,1026,2,0,1,129251,100074,139228,37,-995,201
05.10.2024 13:27:21:90,1027,2,0,1,129244,100057,139226,37,-997,204
05.10.2024 13:27:21:94,1028,2,0,1,129244,100043,139220,40,-994,202
05.10.2024 13:27:21:97,1029,2,0,1,129251,100031,139220,38,-990,203
05.10.2024 13:27:21:101,1030,2,0,1,129251,100030,139220,39,-990,203
05.10.2024 13:27:21:105,1031,2,0,1,129251,100022,139217,40,-992,205
05.10.2024 13:27:21:109,1032,2,0,1,129245,100014,139222,40,-991,207
05.10.2024 13:27:21:113,1033,2,0,1,129247,100007,139226,40,-995,203
05.10.2024 13:27:21:117,1034,2,0,1,129246,99996,139212,36,-990,203
05.10.2024 13:27:21:121,1035,2,0,1,129244,99992,139223,39,-993,204
05.10.2024 13:27:21:125,1036,2,0,1,129244,99993,139219,38,-990,204
05.10.2024 13:27:21:129,1037,2,0,1,129246,99981,139221,43,-989,205
05.10.2024 13:27:21:133,1038,2,0,1,129246,99976,139217,42,-990,207
05.10.2024 13:27:21:136,1039,2,0,1,129251,99984,139220,37,-993,206
05.10.2024 13:27:21:140,1040,2,0,1,129248,99968,139221,32,-990,208
05.10.2024 13:27:21:144,1041,2,0,1,129251,99969,139221,37,-985,210
05.10.2024 13:27:21:148,1042,2,0,1,129243,99967,139219,35,-987,207
05.10.2024 13:27:21:152,1043,2,0,1,129248,99959,139226,36,-993,208
05.10.2024 13:27:21:156,1044,2,0,1,129248,99957,139224,34,-989,209
05.10.2024 13:27:21:160,1045,2,0,1,129251,99952,139224,37,-988,203
05.10.2024 13:27:21:164,1046,2,0,1,129249,99958,139231,39,-988,205
05.10.2024 13:27:21:168,1047,2,0,1,129247,99959,139224,36,-987,205
05.10.2024 13:27:21:172,1048,2,0,1,129251,99961,139224,32,-988,203
05.10.2024 13:27:21:175,1049,2,0,1,129247,99950,139231,40,-990,203
05.10.2024 13:27:21:179,1050,2,0,1,129248,99955,139240,37,-989,210
05.10.2024 13:27:21:183,1051,2,0,1,129246,99955,139234,34,-990,212
05.10.2024 13:27:21:187,1052,2,0,1,129255,99949,139231,36,-988,210
05.10.2024 13:27:21:191,1053,2,0,1,129254,99954,139232,38,-989,211
05.10.2024 13:27:21:195,1054,2,0,1,129253,99960,139230,38,-986,208
05.10.2024 13:27:21:199,1055,2,0,1,129256,99956,139234,35,-988,208
05.10.2024 13:27:21:203,1056,2,0,1,129257,99963,139238,36,-989,208
05.10.2024 13:27:21:207,1057,2,0,1,129260,99956,139246,37,-989,207
05.10.2024 13:27:21:211,1058,2,0,1,129258,99968,139242,35,-989,201
05.10.2024 13:27:21:214,1059,2,0,1,129258,99968,139249,37,-987,211
05.10.2024 13:27:21:218,1060,2,0,1,129261,99970,139244,35,-988,203
05.10.2024 13:27:21:222,1061,2,0,1,129262,99978,139248,32,-993,207
05.10.2024 13:27:21:226,1062,2,0,1,129262,99973,139250,35,-988,208
05.10.2024 13:27:21:230,1063,2,0,1,129266,99984,139255,33,-990,210
05.10.2024 13:27:21:234,1064,2,0,1,129268,99973,139250,35,-991,203
05.10.2024 13:27:21:238,1065,2,0,1,129261,99980,139252,33,-994,205
05.10.2024 13:27:21:242,1066,2,0,1,129269,99989,139252,32,-996,205
05.10.2024 13:27:21:246,1067,2,0,1,129270,99982,139255,36,-993,205
05.10.2024 13:27:21:250,1068,2,0,1,129273,99990,139257,32,-994,207
05.10.2024 13:27:21:253,1069,2,0,1,129268,99991,139257,32,-993,205
05.10.2024 13:27:21:257,1070,2,0,1,129272,99997,139254,35,-994,206
05.10.2024 13:27:21:261,1071,2,0,1,129271,100000,139254,37,-992,208
05.10.2024 13:27:21:265,1072,2,0,1,129273,100007,139257,35,-993,204
05.10.2024 13:27:21:269,1073,2,0,1,129277,100007,139261,33,-996,206
05.10.2024 13:27:21:273,1074,2,0,1,129275,100011,139256,32,-991,208
05.10.2024 13:27:21:277,1075,2,0,1,129272,100016,139258,33,-989,209
05.10.2024 13:27:21:281,1076,2,0,1,129272,100015,139250,35,-990,203
05.10.2024 13:27:21:285,1077,2,0,1,129275,100013,139262,37,-993,205
05.10.2024 13:27:21:289,1078,2,0,1,129276,100015,139257,38,-993,205
05.10.2024 13:27:21:292,1079,2,0,1,129277,100010,139259,40,-992,206
05.10.2024 13:27:21:296,1080,2,0,1,129273,100006,139253,36,-989,205
05.10.2024 13:27:21:300,1081,2,0,1,129275,100011,139246,36,-991,207
05.10.2024 13:27:21:304,1082,2,0,1,129276,100012,139252,37,-990,208
05.10.2024 13:27:21:308,1083,2,0,1,129273,100014,139250,37,-985,209
05.10.2024 13:27:21:312,1084,2,0,1,129278,100009,139256,35,-988,210
05.10.2024 13:27:21:316,1085,2,0,1,129273,100009,139244,34,-984,210
05.10.2024 13:27:21:320,1086,2,0,1,129273,100008,139248,38,-989,207
05.10.2024 13:27:21:324,1087,2,0,1,129272,99996,139247,38,-990,204
05.10.2024 13:27:21:328,1088,2,0,1,129274,100002,139253,37,-987,208
05.10.2024 13:27:21:331,1089,2,0,1,129271,99998,139245,37,-991,206
05.10.2024 13:27:21:335,1090,2,0,1,129276,100002,139243,35,-988,209
05.10.2024 13:27:21:339,1091,2,0,1,129273,99999,139245,37,-992,205
05.10.2024 13:27:21:343,1092,2,0,1,129271,99996,139240,37,-989,209
05.10.2024 13:27:21:347,1093,2,0,1,129270,99989,139239,37,-986,200
05.10.2024 13:27:21:351,1094,2,0,1,129276,100002,139247,34,-991,205
05.10.2024 13:27:21:355,1095,2,0,1,129275,99987,139243,37,-991,204
05.10.2024 13:27:21:359,1096,2,0,1,129276,99990,139238,35,-987,206
05.10.2024 13:27:21:363,1097,2,0,1,129274,99991,139242,36,-993,206
05.10.2024 13:27:21:367,1098,2,0,1,129273,99986,139245,32,-993,207
05.10.2024 13:27:21:370,1099,2,0,1,129276,99995,139242,40,-987,205
05.10.2024 13:27:21:374,1100,2,0,1,129277,99980,139247,36,-989,205
05.10.2024 13:27:21:378,1101,2,0,1,129278,99973,139241,37,-989,207
05.10.2024 13:27:21:382,1102,2,0,1,129275,99987,139248,35,-991,206
05.10.2024 13:27:21:386,1103,2,0,1,129279,99980,139251,37,-995,204
05.10.2024 13:27:21:390,1104,2,0,1,129279,99979,139246,34,-990,206
05.10.2024 13:27:21:394,1105,2,0,1,129279,99981,139251,31,-990,207
05.10.2024 13:27:21:398,1106,2,0,1,129274,99984,139247,38,-993,207
05.10.2024 13:27:21:402,1107,2,0,1,129285,99987,139251,37,-992,207
05.10.2024 13:27:21:406,1108,2,0,1,129284,99983,139249,35,-994,206
05.10.2024 13:27:21:409,1109,2,0,1,129274,99988,139249,28,-991,203
05.10.2024 13:27:21:413,1110,2,0,1,129285,99990,139250,34,-992,211
05.10.2024 13:27:21:417,1111,2,0,1,129280,99976,139256,36,-992,203
05.10.2024 13:27:21:421,1112,2,0,1,129286,99988,139248,30,-997,205
05.10.2024 13:27:21:425,1113,2,0,1,129286,99995,139255,33,-990,203
05.10.2024 13:27:21:429,1114,2,0,1,129287,99996,139251,34,-990,203
05.10.2024 13:27:21:433,1115,2,0,1,129284,99994,139257,33,-992,203
05.10.2024 13:27:21:437,1116,2,0,1,129291,99997,139253,33,-989,207
05.10.2024 13:27:21:441,1117,2,0,1,129290,100008,139254,33,-990,209
05.10.2024 13:27:21:445,1118,2,0,1,129291,100009,139255,32,-986,202
05.10.2024 13:27:21:448,1119,2,0,1,129287,100006,139261,31,-991,203
05.10.2024 13:27:21:452,1120,2,0,1,129285,100005,139263,34,-991,203
05.10.2024 13:27:21:456,1121,2,0,1,129292,100004,139267,31,-989,203
05.10.2024 13:27:21:460,1122,2,0,1,129289,100013,139264,34,-991,205
05.10.2024 13:27:21:464,1123,2,0,1,129291,100007,139267,33,-992,206
05.10.2024 13:27:21:468,1124,2,0,1,129297,100017,139272,29,-987,206
05.10.2024 13:27:21:472,1125,2,0,1,129292,100019,139263,34,-991,203
05.10.2024 13:27:21:476,1126,2,0,1,129296,100020,139271,37,-989,203
05.10.2024 13:27:21:480,1127,2,0,1,129296,100021,139265,33,-989,203
05.10.2024 13:27:21:484,1128,2,0,1,129294,100025,139269,34,-989,206
05.10.2024 13:27:21:487,1129,2,0,1,129295,100026,139263,31,-990,205
05.10.2024 13:27:21:491,1130,2,0,1,129293,100022,139271,34,-990,206
05.10.2024 13:27:21:495,1131,2,0,1,129297,100030,139273,32,-989,205
05.10.2024 13:27:21:499,1132,2,0,1,129302,100039,139276,28,-990,205
05.10.2024 13:27:21:503,1133,2,0,1,129299,100043,139271,35,-991,206
05.10.2024 13:27:21:507,1134,2,0,1,129297,100053,139279,30,-994,203
05.10.2024 13:27:21:511,1135,2,0,1,129302,100046,139275,32,-987,205
05.10.2024 13:27:21:515,1136,2,0,1,129302,100041,139278,30,-992,204
05.10.2024 13:27:21:519,1137,2,0,1,129302,100056,139278,28,-991,205
05.10.2024 13:27:21:523,1138,2,0,1,129306,100059,139281,31,-992,205
05.10.2024 13:27:21:526,1139,2,0,1,129299,100059,139279,29,-990,201
05.10.2024 13:27:21:530,1140,2,0,1,129307,100067,139282,27,-988,203
05.10.2024 13:27:21:534,1141,2,0,1,129307,100068,139281,29,-990,201
05.10.2024 13:27:21:538,1142,2,0,1,129306,100070,139287,28,-990,199
05.10.2024 13:27:21:542,1143,2,0,1,129304,100071,139284,31,-994,203
05.10.2024 13:27:21:546,1144,2,0,1,129307,100080,139287,30,-994,208
05.10.2024 13:27:21:550,1145,2,0,1,129307,100083,139288,30,-995,201
05.10.2024 13:27:21:554,1146,2,0,1,129303,100074,139291,31,-995,207
05.10.2024 13:27:21:558,1147,2,0,1,129305,100089,139288,32,-993,207
05.10.2024 13:27:21:562,1148,2,0,1,129307,100094,139297,28,-994,208
05.10.2024 13:27:21:565,1149,2,0,1,129311,100090,139294,31,-987,207
05.10.2024 13:27:21:569,1150,2,0,1,129312,100087,139290,31,-987,205
05.10.2024 13:27:21:573,1151,2,0,1,129311,100092,139293,31,-986,204
05.10.2024 13:27:21:577,1152,2,0,1,129312,100104,139293,33,-988,205
05.10.2024 13:27:21:581,1153,2,0,1,129313,100114,139297,30,-988,205
05.10.2024 13:27:21:585,1154,2,0,1,129313,100105,139294,27,-989,204
05.10.2024 13:27:21:589,1155,2,0,1,129315,100112,139294,32,-990,204
05.10.2024 13:27:21:593,1156,2,0,1,129313,100117,139300,32,-997,202
05.10.2024 13:27:21:597,1157,2,0,1,129318,100120,139300,30,-995,201
05.10.2024 13:27:21:601,1158,2,0,1,129318,100127,139298,30,-986,203
05.10.2024 13:27:21:604,1159,2,0,1,129316,100139,139298,28,-993,200
05.10.2024 13:27:21:608,1160,2,0,1,129317,100133,139298,33,-992,203
05.10.2024 13:27:21:612,1161,2,0,1,129319,100139,139306,28,-988,204
05.10.2024 13:27:21:616,1162,2,0,1,129320,100139,139303,28,-994,204
05.10.2024 13:27:21:620,1163,2,0,1,129319,100142,139302,33,-988,205
05.10.2024 13:27:21:624,1164,2,0,1,129321,100143,139309,27,-993,209
05.10.2024 13:27:21:628,1165,2,0,1,129319,100157,139306,32,-991,209
05.10.2024 13:27:21:632,1166,2,0,1,129324,100150,139310,32,-991,207
05.10.2024 13:27:21:636,1167,2,0,1,129327,100162,139312,29,-992,210
05.10.2024 13:27:21:640,1168,2,0,1,129321,100161,139312,30,-993,209
05.10.2024 13:27:21:643,1169,2,0,1,129325,100170,139310,29,-994,207
05.10.2024 13:27:21:647,1170,2,0,1,129327,100173,139311,33,-994,207
05.10.2024 13:27:21:651,1171,2,0,1,129324,100176,139307,33,-992,205
05.10.2024 13:27:21:655,1172,2,0,1,129327,100185,139313,26,-992,205
05.10.2024 13:27:21:659,1173,2,0,1,129328,100180,139319,37,-994,206
05.10.2024 13:27:21:663,1174,2,0,1,129328,100189,139318,29,-1001,210
05.10.2024 13:27:21:667,1175,2,0,1,129326,100188,139314,33,-995,203
05.10.2024 13:27:21:671,1176,2,0,1,129326,100196,139314,32,-992,212
05.10.2024 13:27:21:675,1177,2,0,1,129328,100196,139322,33,-993,205
05.10.2024 13:27:21:679,1178,2,0,1,129335,100202,139321,29,-990,205
05.10.2024 13:27:21:682,1179,2,0,1,129333,100199,139321,35,-992,202
05.10.2024 13:27:21:686,1180,2,0,1,129338,100205,139326,30,-989,206
05.10.2024 13:27:21:690,1181,2,0,1,129334,100210,139321,32,-992,207
05.10.2024 13:27:21:694,1182,2,0,1,129329,100222,139321,35,-993,204
05.10.2024 13:27:21:698,1183,2,0,1,129334,100215,139324,29,-993,205
05.10.2024 13:27:21:702,1184,2,0,1,129334,100222,139319,32,-991,207
05.10.2024 13:27:21:706,1185,2,0,1,129333,100215,139315,34,-993,206
05.10.2024 13:27:21:710,1186,2,0,1,129332,100216,139310,28,-993,203
05.10.2024 13:27:21:714,1187,2,0,1,129329,100209,139307,30,-992,204
05.10.2024 13:27:21:718,1188,2,0,1,129333,100214,139304,32,-993,202
05.10.2024 13:27:21:721,1189,2,0,1,129333,100210,139298,31,-987,206
05.10.2024 13:27:21:725,1190,2,0,1,129316,100202,139291,30,-990,208
05.10.2024 13:27:21:729,1191,2,0,1,129323,100189,139290,33,-991,205
05.10.2024 13:27:21:733,1192,2,0,1,129318,100183,139274,31,-987,205
05.10.2024 13:27:21:737,1193,2,0,1,129317,100177,139281,31,-988,203
05.10.2024 13:27:21:741,1194,2,0,1,129314,100177,139267,34,-990,205
05.10.2024 13:27:21:745,1195,2,0,1,129310,100172,139254,34,-989,203
05.10.2024 13:27:21:749,1196,2,0,1,129310,100141,139256,34,-988,205
05.10.2024 13:27:21:753,1197,2,0,1,129311,100140,139253,28,-992,204
05.10.2024 13:27:21:757,1198,2,0,1,129300,100130,139243,28,-991,203
05.10.2024 13:27:21:760,1199,2,0,1,129303,100117,139241,29,-990,200
05.10.2024 13:27:21:764,1200,2,0,1,129303,100103,139233,27,-990,208
05.10.2024 13:27:21:768,1201,2,0,1,129302,100099,139232,33,-990,208
05.10.2024 13:27:21:772,1202,2,0,1,129302,100086,139224,26,-986,203
05.10.2024 13:27:21:776,1203,2,0,1,129296,100074,139220,29,-990,202
05.10.2024 13:27:21:780,1204,2,0,1,129294,100055,139215,31,-994,203
05.10.2024 13:27:21:784,1205,2,0,1,129296,100041,139215,28,-989,204
05.10.2024 13:27:21:788,1206,2,0,1,129293,100033,139210,30,-989,202
05.10.2024 13:27:21:792,1207,2,0,1,129293,100021,139210,30,-992,204
05.10.2024 13:27:21:796,1208,2,0,1,129292,100020,139207,31,-994,204
05.10.2024 13:27:21:799,1209,2,0,1,129292,99996,139205,26,-993,203
05.10.2024 13:27:21:803,1210,2,0,1,129298,99989,139204,26,-990,205
05.10.2024 13:27:21:807,1211,2,0,1,129291,99980,139206,27,-993,203
05.10.2024 13:27:21:811,1212,2,0,1,129289,99979,139203,27,-996,201
05.10.2024 13:27:21:815,1213,2,0,1,129293,99966,139205,28,-993,204
05.10.2024 13:27:21:819,1214,2,0,1,129292,99962,139203,31,-993,204
05.10.2024 13:27:21:823,1215,2,0,1,129295,99951,139203,28,-992,203
05.10.2024 13:27:21:827,1216,2,0,1,129295,99950,139199,26,-994,205
05.10.2024 13:27:21:831,1217,2,0,1,129293,99936,139196,31,-993,204
05.10.2024 13:27:21:835,1218,2,0,1,129290,99935,139198,33,-987,204
05.10.2024 13:27:21:838,1219,2,0,1,129292,99936,139201,30,-993,205
05.10.2024 13:27:21:842,1220,2,0,1,129291,99927,139199,31,-992,203
05.10.2024 13:27:21:846,1221,2,0,1,129293,99930,139205,31,-994,206
05.10.2024 13:27:21:850,1222,2,0,1,129296,99915,139200,28,-994,205
05.10.2024 13:27:21:854,1223,2,0,1,129297,99921,139201,32,-993,203
05.10.2024 13:27:21:858,1224,2,0,1,129299,99925,139201,29,-991,204
05.10.2024 13:27:21:862,1225,2,0,1,129291,99916,139201,28,-997,208
05.10.2024 13:27:21:866,1226,2,0,1,129296,99926,139204,27,-995,204
05.10.2024 13:27:21:870,1227,2,0,1,129294,99923,139205,26,-991,203
05.10.2024 13:27:21:874,1228,2,0,1,129301,99921,139203,29,-988,205
05.10.2024 13:27:21:877,1229,2,0,1,129299,99916,139206,30,-989,203
05.10.2024 13:27:21:881,1230,2,0,1,129296,99921,139207,27,-990,201
05.10.2024 13:27:21:885,1231,2,0,1,129298,99919,139206,29,-989,200
05.10.2024 13:27:21:889,1232,2,0,1,129301,99927,139210,36,-991,200
05.10.2024 13:27:21:893,1233,2,0,1,129302,99920,139205,31,-990,203
05.10.2024 13:27:21:897,1234,2,0,1,129297,99923,139205,31,-988,200
05.10.2024 13:27:21:901,1235,2,0,1,129294,99924,139209,27,-987,201
05.10.2024 13:27:21:905,1236,2,0,1,129298,99921,139211,28,-992,204
05.10.2024 13:27:21:909,1237,2,0,1,129301,99922,139208,27,-985,205
05.10.2024 13:27:21:913,1238,2,0,1,129302,99924,139214,28,-991,206
05.10.2024 13:27:21:916,1239,2,0,1,129299,99934,139212,27,-990,203
05.10.2024 13:27:21:920,1240,2,0,1,129299,99931,139216,30,-991,204
05.10.2024 13:27:21:924,1241,2,0,1,129295,99926,139216,22,-988,205
05.10.2024 13:27:21:928,1242,2,0,1,129300,99926,139216,25,-994,202
05.10.2024 13:27:21:932,1243,2,0,1,129304,99942,139224,24,-988,204
05.10.2024 13:27:21:936,1244,2,0,1,129301,99934,139222,29,-988,202
05.10.2024 13:27:21:940,1245,2,0,1,129307,99929,139220,22,-990,205
05.10.2024 13:27:21:944,1246,2,0,1,129309,99939,139227,29,-985,205
05.10.2024 13:27:21:948,1247,2,0,1,129304,99933,139226,28,-987,207
05.10.2024 13:27:21:952,1248,2,0,1,129306,99940,139227,27,-988,208
05.10.2024 13:27:21:955,1249,2,0,1,129309,99947,139225,27,-991,206
05.10.2024 13:27:21:959,1250,2,0,1,129307,99955,139223,33,-987,201
05.10.2024 13:27:21:963,1251,2,0,1,129307,99938,139227,28,-991,206
05.10.2024 13:27:21:967,1252,2,0,1,129309,99949,139227,21,-987,202
05.10.2024 13:27:21:971,1253,2,0,1,129307,99953,139228,31,-990,203
05.10.2024 13:27:21:975,1254,2,0,1,129312,99961,139231,33,-991,204
05.10.2024 13:27:21:979,1255,2,0,1,129313,99957,139235,27,-995,206
05.10.2024 13:27:21:983,1256,2,0,1,129311,99968,139236,30,-994,200
05.10.2024 13:27:21:987,1257,2,0,1,129312,99962,139231,32,-992,203
05.10.2024 13:27:21:991,1258,2,0,1,129315,99959,139235,26,-995,203
05.10.2024 13:27:21:994,1259,2,0,1,129315,99970,139230,23,-994,204
05.10.2024 13:27:21:998,1260,2,0,1,129311,99972,139236,27,-996,202
05.10.2024 13:27:22:2,1261,2,0,1,129313,99971,139236,28,-995,202
05.10.2024 13:27:22:6,1262,2,0,1,129313,99974,139233,27,-994,203
05.10.2024 13:27:22:10,1263,2,0,1,129315,99970,139228,27,-988,203
05.10.2024 13:27:22:14,1264,2,0,1,129315,99973,139236,26,-996,207
05.10.2024 13:27:22:18,1265,2,0,1,129314,99970,139233,24,-999,202
05.10.2024 13:27:22:22,1266,2,0,1,129318,99979,139226,27,-991,204
05.10.2024 13:27:22:26,1267,2,0,1,129313,99968,139239,30,-993,203
05.10.2024 13:27:22:30,1268,2,0,1,129318,99969,139235,30,-992,205
05.10.2024 13:27:22:33,1269,2,0,1,129318,99984,139239,29,-985,204
05.10.2024 13:27:22:37,1270,2,0,1,129316,99971,139228,28,-995,204
05.10.2024 13:27:22:41,1271,2,0,1,129314,99970,139224,27,-992,204
05.10.2024 13:27:22:45,1272,2,0,1,129314,99970,139229,24,-992,206
05.10.2024 13:27:22:49,1273,2,0,1,129313,99965,139232,24,-991,203
05.10.2024 13:27:22:53,1274,2,0,1,129314,99969,139229,29,-990,201
05.10.2024 13:27:22:57,1275,2,0,1,129312,99972,139222,33,-993,205
05.10.2024 13:27:22:61,1276,2,0,1,129313,99965,139227,32,-988,205
05.10.2024 13:27:22:65,1277,2,0,1,129309,99965,139232,27,-992,200
05.10.2024 13:27:22:69,1278,2,0,1,129319,99965,139230,28,-990,208
05.10.2024 13:27:22:72,1279,2,0,1,129315,99967,139229,26,-989,203
05.10.2024 13:27:22:76,1280,2,0,1,129315,99964,139229,27,-987,205
05.10.2024 13:27:22:80,1281,2,0,1,129317,99961,139227,27,-991,203
05.10.2024 13:27:22:84,1282,2,0,1,129316,99961,139225,29,-990,202
05.10.2024 13:27:22:88,1283,2,0,1,129315,99966,139224,26,-990,204
05.10.2024 13:27:22:92,1284,2,0,1,129317,99972,139226,29,-991,207
05.10.2024 13:27:22:96,1285,2,0,1,129316,99963,139227,30,-995,202
05.10.2024 13:27:22:100,1286,2,0,1,129316,99969,139231,29,-991,205
05.10.2024 13:27:22:104,1287,2,0,1,129314,99966,139227,30,-986,203
05.10.2024 13:27:22:108,1288,2,0,1,129315,99968,139230,27,-992,201
05.10.2024 13:27:22:111,1289,2,0,1,129317,99965,139229,34,-990,203
05.10.2024 13:27:22:115,1290,2,0,1,129320,99969,139226,29,-990,201
05.10.2024 13:27:22:119,1291,2,0,1,129316,99974,139231,31,-994,204
05.10.2024 13:27:22:123,1292,2,0,1,129318,99973,139231,29,-992,203
05.10.2024 13:27:22:127,1293,2,0,1,129325,99980,139233,33,-992,203
05.10.2024 13:27:22:131,1294,2,0,1,129326,99978,139233,31,-991,203
05.10.2024 13:27:22:135,1295,2,0,1,129319,99967,139228,33,-989,205
05.10.2024 13:27:22:139,1296,2,0,1,129321,99985,139240,36,-993,203
05.10.2024 13:27:22:143,1297,2,0,1,129320,99984,139234,31,-995,202
05.10.2024 13:27:22:147,1298,2,0,1,129319,99983,139241,30,-989,203
05.10.2024 13:27:22:150,1299,2,0,1,129323,99993,139244,32,-990,206
05.10.2024 13:27:22:154,1300,2,0,1,129320,99993,139237,29,-992,203
05.10.2024 13:27:22:158,1301,2,0,1,129320,100004,139239,30,-994,201
05.10.2024 13:27:22:162,1302,2,0,1,129326,99999,139237,32,-992,207
05.10.2024 13:27:22:166,1303,2,0,1,129325,100005,139243,31,-992,206
05.10.2024 13:27:22:170,1304,2,0,1,129326,100010,139248,30,-993,204
05.10.2024 13:27:22:174,1305,2,0,1,129331,100013,139251,33,-992,205
05.10.2024 13:27:22:178,1306,2,0,1,129327,100013,139244,32,-990,203
05.10.2024 13:27:22:182,1307,2,0,1,129328,100018,139247,28,-990,204
05.10.2024 13:27:22:186,1308,2,0,1,129332,100020,139253,34,-992,208
05.10.2024 13:27:22:189,1309,2,0,1,129326,100025,139250,29,-994,204
05.10.2024 13:27:22:193,1310,2,0,1,129326,100027,139257,30,-990,201
05.10.2024 13:27:22:197,1311,2,0,1,129330,100038,139256,31,-989,200
05.10.2024 13:27:22:201,1312,2,0,1,129330,100042,139256,32,-986,199
05.10.2024 13:27:22:205,1313,2,0,1,129334,100040,139255,29,-988,206
05.10.2024 13:27:22:209,1314,2,0,1,129330,100052,139261,29,-988,206
05.10.2024 13:27:22:213,1315,2,0,1,129335,100051,139264,30,-989,205
05.10.2024 13:27:22:217,1316,2,0,1,129334,100056,139259,27,-987,203
05.10.2024 13:27:22:221,1317,2,0,1,129336,100062,139266,24,-987,205
05.10.2024 13:27:22:225,1318,2,0,1,129335,100060,139268,31,-991,203
05.10.2024 13:27:22:228,1319,2,0,1,129341,100064,139268,29,-990,200
05.10.2024 13:27:22:232,1320,2,0,1,129337,100064,139274,28,-994,199
05.10.2024 13:27:22:236,1321,2,0,1,129338,100076,139267,32,-993,203
05.10.2024 13:27:22:240,1322,2,0,1,129342,100079,139272,31,-988,203
05.10.2024 13:27:22:244,1323,2,0,1,129340,100086,139270,26,-991,203
05.10.2024 13:27:22:248,1324,2,0,1,129337,100092,139282,25,-996,205
05.10.2024 13:27:22:252,1325,2,0,1,129342,100095,139272,26,-992,205
05.10.2024 13:27:22:256,1326,2,0,1,129345,100099,139273,23,-993,207
05.10.2024 13:27:22:260,1327,2,0,1,129337,100108,139275,24,-993,206
05.10.2024 13:27:22:264,1328,2,0,1,129339,100108,139276,27,-989,205
05.10.2024 13:27:22:267,1329,2,0,1,129342,100118,139278,26,-990,207
05.10.2024 13:27:22:271,1330,2,0,1,129348,100118,139282,28,-996,205
05.10.2024 13:27:22:275,1331,2,0,1,129341,100111,139281,24,-993,205
05.10.2024 13:27:22:279,1332,2,0,1,129351,100134,139286,32,-994,204
05.10.2024 13:27:22:283,1333,2,0,1,129344,100131,139283,27,-988,201
05.10.2024 13:27:22:287,1334,2,0,1,129346,100134,139285,26,-991,197
05.10.2024 13:27:22:291,1335,2,0,1,129346,100138,139281,31,-992,204
05.10.2024 13:27:22:295,1336,2,0,1,129345,100151,139287,28,-994,200
05.10.2024 13:27:22:299,1337,2,0,1,129347,100148,139280,29,-993,207
05.10.2024 13:27:22:303,1338,2,0,1,129353,100155,139291,31,-996,200
05.10.2024 13:27:22:306,1339,2,0,1,129346,100154,139287,30,-992,203
05.10.2024 13:27:22:310,1340,2,0,1,129349,100161,139285,30,-989,208
05.10.2024 13:27:22:314,1341,2,0,1,129348,100165,139290,31,-987,204
05.10.2024 13:27:22:318,1342,2,0,1,129349,100167,139298,29,-994,202
05.10.2024 13:27:22:322,1343,2,0,1,129354,100176,139287,26,-993,202
05.10.2024 13:27:22:326,1344,2,0,1,129351,100183,139290,31,-990,200
05.10.2024 13:27:22:330,1345,2,0,1,129349,100178,139289,29,-991,205
05.10.2024 13:27:22:334,1346,2,0,1,129352,100197,139294,27,-990,207
05.10.2024 13:27:22:338,1347,2,0,1,129351,100197,139292,25,-991,203
05.10.2024 13:27:22:342,1348,2,0,1,129355,100197,139298,32,-993,203
05.10.2024 13:27:22:345,1349,2,0,1,129354,100208,139302,29,-994,207
05.10.2024 13:27:22:349,1350,2,0,1,129357,100212,139299,31,-993,207
05.10.2024 13:27:22:353,1351,2,0,1,129352,100205,139301,30,-989,205
05.10.2024 13:27:22:357,1352,2,0,1,129360,100213,139301,31,-988,206
05.10.2024 13:27:22:361,1353,2,0,1,129359,100238,139299,31,-984,208
05.10.2024 13:27:22:365,1354,2,0,1,129357,100221,139295,27,-986,203
05.10.2024 13:27:22:369,1355,2,0,1,129351,100231,139304,30,-988,202
05.10.2024 13:27:22:373,1356,2,0,1,129361,100237,139307,29,-994,202
05.10.2024 13:27:22:377,1357,2,0,1,129360,100242,139309,26,-988,200
05.10.2024 13:27:22:381,1358,2,0,1,129360,100254,139307,27,-990,203
05.10.2024 13:27:22:384,1359,2,0,1,129361,100251,139314,29,-990,207
05.10.2024 13:27:22:388,1360,2,0,1,129362,100259,139313,30,-986,203
05.10.2024 13:27:22:392,1361,2,0,1,129364,100265,139309,29,-990,205
05.10.2024 13:27:22:396,1362,2,0,1,129361,100259,139310,20,-996,204
05.10.2024 13:27:22:400,1363,2,0,1,129363,100275,139320,24,-990,205
05.10.2024 13:27:22:404,1364,2,0,1,129371,100276,139318,27,-996,199
05.10.2024 13:27:22:408,1365,2,0,1,129363,100278,139319,29,-989,204
05.10.2024 13:27:22:412,1366,2,0,1,129369,100278,139320,25,-994,207
05.10.2024 13:27:22:416,1367,2,0,1,129359,100304,139323,23,-995,209
05.10.2024 13:27:22:420,1368,2,0,1,129366,100295,139332,29,-994,203
05.10.2024 13:27:22:423,1369,2,0,1,129366,100306,139335,28,-992,203
05.10.2024 13:27:22:427,1370,2,0,1,129370,100308,139327,25,-998,206
05.10.2024 13:27:22:431,1371,2,0,1,129371,100312,139327,34,-999,202
05.10.2024 13:27:22:435,1372,2,0,1,129375,100312,139327,27,-997,207
05.10.2024 13:27:22:439,1373,2,0,1,129374,100325,139331,27,-995,206
05.10.2024 13:27:22:443,1374,2,0,1,129369,100329,139335,33,-996,207
05.10.2024 13:27:22:447,1375,2,0,1,129371,100339,139334,29,-998,207
05.10.2024 13:27:22:451,1376,2,0,1,129376,100346,139333,29,-997,204
05.10.2024 13:27:22:455,1377,2,0,1,129372,100351,139332,34,-997,208
05.10.2024 13:27:22:459,1378,2,0,1,129376,100352,139340,31,-997,206
05.10.2024 13:27:22:462,1379,2,0,1,129371,100348,139339,28,-996,211
05.10.2024 13:27:22:466,1380,2,0,1,129376,100354,139339,27,-995,205
05.10.2024 13:27:22:470,1381,2,0,1,129375,100366,139332,31,-992,207
05.10.2024 13:27:22:474,1382,2,0,1,129372,100367,139342,32,-994,204
05.10.2024 13:27:22:478,1383,2,0,1,129376,100374,139334,29,-990,206
05.10.2024 13:27:22:482,1384,2,0,1,129373,100372,139333,32,-992,204
05.10.2024 13:27:22:486,1385,2,0,1,129377,100375,139329,33,-992,206
05.10.2024 13:27:22:490,1386,2,0,1,129372,100374,139325,29,-989,203
05.10.2024 13:27:22:494,1387,2,0,1,129366,100375,139319,30,-990,203
05.10.2024 13:27:22:498,1388,2,0,1,129360,100370,139310,35,-991,204
05.10.2024 13:27:22:501,1389,2,0,1,129360,100370,139310,30,-988,204
05.10.2024 13:27:22:505,1390,2,0,1,129361,100365,139303,29,-992,202
05.10.2024 13:27:22:509,1391,2,0,1,129357,100358,139291,33,-993,205
05.10.2024 13:27:22:513,1392,2,0,1,129354,100348,139286,25,-985,205
05.10.2024 13:27:22:517,1393,2,0,1,129354,100342,139290,35,-989,202
05.10.2024 13:27:22:521,1394,2,0,1,129344,100326,139271,32,-989,204
05.10.2024 13:27:22:525,1395,2,0,1,129347,100321,139266,30,-984,203
05.10.2024 13:27:22:529,1396,2,0,1,129338,100319,139261,30,-992,204
05.10.2024 13:27:22:533,1397,2,0,1,129340,100299,139254,27,-989,203
05.10.2024 13:27:22:537,1398,2,0,1,129342,100298,139254,27,-986,203
05.10.2024 13:27:22:540,1399,2,0,1,129337,100279,139247,28,-988,203
05.10.2024 13:27:22:544,1400,2,0,1,129336,100267,139242,28,-992,203
05.10.2024 13:27:22:548,1401,2,0,1,129331,100251,139233,29,-988,206
05.10.2024 13:27:22:552,1402,2,0,1,129333,100241,139231,32,-995,202
05.10.2024 13:27:22:556,1403,2,0,1,129332,100223,139230,28,-995,198
05.10.2024 13:27:22:560,1404,2,0,1,129329,100212,139220,29,-993,201
05.10.2024 13:27:22:564,1405,2,0,1,129328,100194,139220,22,-992,200
05.10.2024 13:27:22:568,1406,2,0,1,129324,100198,139221,28,-994,200
05.10.2024 13:27:22:572,1407,2,0,1,129324,100186,139212,28,-990,203
05.10.2024 13:27:22:576,1408,2,0,1,129327,100163,139215,28,-993,200
05.10.2024 13:27:22:579,1409,2,0,1,129322,100157,139211,31,-993,200
05.10.2024 13:27:22:583,1410,2,0,1,129320,100139,139198,30,-994,201
05.10.2024 13:27:22:587,1411,2,0,1,129324,100138,139205,31,-991,203
05.10.2024 13:27:22:591,1412,2,0,1,129322,100126,139204,27,-993,199
05.10.2024 13:27:22:595,1413,2,0,1,129320,100116,139206,29,-996,203
05.10.2024 13:27:22:599,1414,2,0,1,129321,100115,139205,25,-993,199
05.10.2024 13:27:22:603,1415,2,0,1,129319,100102,139198,34,-991,199
05.10.2024 13:27:22:607,1416,2,0,1,129321,100101,139200,27,-996,201
05.10.2024 13:27:22:611,1417,2,0,1,129318,100090,139202,27,-990,203
05.10.2024 13:27:22:615,1418,2,0,1,129320,100083,139205,22,-994,203
05.10.2024 13:27:22:618,1419,2,0,1,129314,100090,139199,26,-992,205
05.10.2024 13:27:22:622,1420,2,0,1,129315,100074,139199,30,-992,203
05.10.2024 13:27:22:626,1421,2,0,1,129317,100076,139201,24,-998,205
05.10.2024 13:27:22:630,1422,2,0,1,129313,100078,139202,26,-995,205
05.10.2024 13:27:22:634,1423,2,0,1,129320,100067,139199,28,-993,209
05.10.2024 13:27:22:638,1424,2,0,1,129316,100066,139203,25,-991,205
05.10.2024 13:27:22:642,1425,2,0,1,129318,100062,139197,24,-992,203
05.10.2024 13:27:22:646,1426,2,0,1,129322,100063,139206,29,-994,210
05.10.2024 13:27:22:650,1427,2,0,1,129315,100061,139206,28,-990,203
05.10.2024 13:27:22:654,1428,2,0,1,129317,100057,139207,24,-993,206
05.10.2024 13:27:22:657,1429,2,0,1,129315,100059,139198,28,-991,204
05.10.2024 13:27:22:661,1430,2,0,1,129319,100055,139202,29,-986,205
05.10.2024 13:27:22:665,1431,2,0,1,129316,100057,139204,27,-990,206
05.10.2024 13:27:22:669,1432,2,0,1,129319,100053,139201,26,-986,209
05.10.2024 13:27:22:673,1433,2,0,1,129317,100058,139198,33,-985,201
05.10.2024 13:27:22:677,1434,2,0,1,129313,100050,139205,33,-988,203
05.10.2024 13:27:22:681,1435,2,0,1,129307,100053,139202,27,-987,201
05.10.2024 13:27:22:685,1436,2,0,1,129315,100053,139203,26,-988,200
05.10.2024 13:27:22:689,1437,2,0,1,129311,100051,139206,29,-989,202
05.10.2024 13:27:22:693,1438,2,0,1,129313,100055,139207,29,-986,199
05.10.2024 13:27:22:696,1439,2,0,1,129313,100051,139209,30,-988,207
05.10.2024 13:27:22:700,1440,2,0,1,129316,100060,139206,27,-992,204
05.10.2024 13:27:22:704,1441,2,0,1,129313,100061,139207,25,-990,201
05.10.2024 13:27:22:708,1442,2,0,1,129313,100059,139208,29,-988,205
05.10.2024 13:27:22:712,1443,2,0,1,129315,100057,139209,28,-984,206
05.10.2024 13:27:22:716,1444,2,0,1,129315,100061,139212,27,-991,203
05.10.2024 13:27:22:720,1445,2,0,1,129319,100066,139218,31,-989,207
05.10.2024 13:27:22:724,1446,2,0,1,129317,100067,139222,26,-990,207
05.10.2024 13:27:22:728,1447,2,0,1,129317,100071,139218,29,-990,209
05.10.2024 13:27:22:732,1448,2,0,1,129316,100074,139222,26,-990,206
05.10.2024 13:27:22:735,1449,2,0,1,129323,100063,139218,26,-991,205
05.10.2024 13:27:22:739,1450,2,0,1,129316,100073,139218,26,-996,203
05.10.2024 13:27:22:743,1451,2,0,1,129317,100072,139217,27,-994,201
05.10.2024 13:27:22:747,1452,2,0,1,129318,100079,139222,30,-994,203
05.10.2024 13:27:22:751,1453,2,0,1,129317,100080,139219,31,-996,204
05.10.2024 13:27:22:755,1454,2,0,1,129322,100077,139222,31,-996,205
05.10.2024 13:27:22:759,1455,2,0,1,129318,100081,139222,30,-994,204
05.10.2024 13:27:22:763,1456,2,0,1,129319,100085,139222,27,-998,203
05.10.2024 13:27:22:767,1457,2,0,1,129316,100087,139224,30,-996,202
05.10.2024 13:27:22:771,1458,2,0,1,129317,100082,139227,26,-998,203
05.10.2024 13:27:22:774,1459,2,0,1,129321,100082,139227,31,-993,202
05.10.2024 13:27:22:778,1460,2,0,1,129315,100089,139224,30,-997,206
05.10.2024 13:27:22:782,1461,2,0,1,129318,100089,139228,29,-992,205
05.10.2024 13:27:22:786,1462,2,0,1,129319,100086,139229,25,-999,203
05.10.2024 13:27:22:790,1463,2,0,1,129319,100099,139216,27,-993,203
05.10.2024 13:27:22:794,1464,2,0,1,129316,100089,139221,31,-994,203
05.10.2024 13:27:22:798,1465,2,0,1,129314,100078,139223,28,-990,201
05.10.2024 13:27:22:802,1466,2,0,1,129310,100081,139218,28,-991,206
05.10.2024 13:27:22:806,1467,2,0,1,129309,100091,139212,29,-991,203
05.10.2024 13:27:22:810,1468,2,0,1,129313,100083,139221,28,-992,202
05.10.2024 13:27:22:813,1469,2,0,1,129316,100091,139221,27,-989,205
05.10.2024 13:27:22:817,1470,2,0,1,129307,100090,139216,28,-988,205
05.10.2024 13:27:22:821,1471,2,0,1,129316,100092,139217,27,-988,206
05.10.2024 13:27:22:825,1472,2,0,1,129313,100090,139222,29,-988,201
05.10.2024 13:27:22:829,1473,2,0,1,129310,100100,139217,29,-994,200
05.10.2024 13:27:22:833,1474,2,0,1,129314,100084,139215,30,-990,204
05.10.2024 13:27:22:837,1475,2,0,1,129310,100095,139218,29,-987,204
05.10.2024 13:27:22:841,1476,2,0,1,129307,100092,139214,29,-987,203
05.10.2024 13:27:22:845,1477,2,0,1,129309,100084,139215,30,-990,205
05.10.2024 13:27:22:849,1478,2,0,1,129309,100084,139214,31,-988,206
05.10.2024 13:27:22:852,1479,2,0,1,129307,100084,139215,34,-990,208
05.10.2024 13:27:22:856,1480,2,0,1,129308,100092,139211,30,-988,205
05.10.2024 13:27:22:860,1481,2,0,1,129306,100078,139214,31,-990,203
05.10.2024 13:27:22:864,1482,2,0,1,129306,100086,139213,28,-990,208
05.10.2024 13:27:22:868,1483,2,0,1,129306,100084,139208,32,-994,205
05.10.2024 13:27:22:872,1484,2,0,1,129304,100085,139215,30,-993,203
05.10.2024 13:27:22:876,1485,2,0,1,129304,100086,139211,32,-992,204
05.10.2024 13:27:22:880,1486,2,0,1,129300,100084,139215,36,-993,203
05.10.2024 13:27:22:884,1487,2,0,1,129300,100082,139216,34,-992,203
05.10.2024 13:27:22:888,1488,2,0,1,129301,100095,139213,33,-988,203
05.10.2024 13:27:22:891,1489,2,0,1,129299,100090,139219,29,-990,204
05.10.2024 13:27:22:895,1490,2,0,1,129301,100085,139217,30,-989,202
05.10.2024 13:27:22:899,1491,2,0,1,129297,100089,139215,30,-993,205
05.10.2024 13:27:22:903,1492,2,0,1,129303,100095,139217,32,-994,203
05.10.2024 13:27:22:907,1493,2,0,1,129297,100097,139221,30,-989,203
05.10.2024 13:27:22:911,1494,2,0,1,129294,100096,139223,28,-986,212
05.10.2024 13:27:22:915,1495,2,0,1,129297,100101,139220,33,-989,198
05.10.2024 13:27:22:919,1496,2,0,1,129302,100104,139221,33,-986,200
05.10.2024 13:27:22:923,1497,2,0,1,129298,100099,139223,32,-989,206
05.10.2024 13:27:22:927,1498,2,0,1,129295,100102,139218,31,-992,203
05.10.2024 13:27:22:930,1499,2,0,1,129297,100108,139224,29,-990,206
05.10.2024 13:27:22:934,1500,2,0,1,129298,100114,139225,32,-994,202
05.10.2024 13:27:22:938,1501,2,0,1,129298,100115,139225,29,-995,203
05.10.2024 13:27:22:942,1502,2,0,1,129300,100116,139228,32,-992,202
05.10.2024 13:27:22:946,1503,2,0,1,129298,100115,139228,33,-987,206
05.10.2024 13:27:22:950,1504,2,0,1,129296,100116,139224,31,-991,204
05.10.2024 13:27:22:954,1505,2,0,1,129297,100131,139225,26,-995,201
05.10.2024 13:27:22:958,1506,2,0,1,129296,100131,139229,29,-991,205
05.10.2024 13:27:22:962,1507,2,0,1,129293,100126,139231,30,-989,203
05.10.2024 13:27:22:966,1508,2,0,1,129293,100134,139230,28,-990,207
05.10.2024 13:27:22:969,1509,2,0,1,129298,100144,139235,30,-992,204
05.10.2024 13:27:22:973,1510,2,0,1,129291,100146,139226,31,-988,204
05.10.2024 13:27:22:977,1511,2,0,1,129296,100151,139233,27,-988,206
05.10.2024 13:27:22:981,1512,2,0,1,129296,100151,139235,30,-991,203
05.10.2024 13:27:22:985,1513,2,0,1,129297,100157,139235,29,-989,206
05.10.2024 13:27:22:989,1514,2,0,1,129296,100158,139237,27,-990,206
05.10.2024 13:27:22:993,1515,2,0,1,129298,100165,139233,27,-992,203
05.10.2024 13:27:22:997,1516,2,0,1,129295,100166,139233,27,-993,203
05.10.2024 13:27:23:1,1517,2,0,1,129298,100172,139242,29,-989,210
05.10.2024 13:27:23:5,1518,2,0,1,129297,100184,139239,28,-987,211
05.10.2024 13:27:23:8,1519,2,0,1,129297,100179,139235,27,-990,208
05.10.2024 13:27:23:12,1520,2,0,1,129296,100172,139236,24,-988,203
05.10.2024 13:27:23:16,1521,2,0,1,129295,100191,139233,28,-988,204
05.10.2024 13:27:23:20,1522,2,0,1,129293,100192,139242,31,-990,205
05.10.2024 13:27:23:24,1523,2,0,1,129296,100192,139240,26,-993,204
05.10.2024 13:27:23:28,1524,2,0,1,129297,100194,139243,29,-991,205
05.10.2024 13:27:23:32,1525,2,0,1,129293,100201,139240,31,-993,203
05.10.2024 13:27:23:36,1526,2,0,1,129294,100207,139235,27,-991,206
05.10.2024 13:27:23:40,1527,2,0,1,129296,100213,139244,28,-992,208
05.10.2024 13:27:23:44,1528,2,0,1,129297,100216,139242,29,-990,209
05.10.2024 13:27:23:47,1529,2,0,1,129291,100210,139247,30,-994,206
05.10.2024 13:27:23:51,1530,2,0,1,129291,100224,139247,30,-986,204
05.10.2024 13:27:23:55,1531,2,0,1,129289,100235,139245,27,-995,203
05.10.2024 13:27:23:59,1532,2,0,1,129291,100231,139244,31,-990,208
05.10.2024 13:27:23:63,1533,2,0,1,129290,100233,139245,29,-988,208
05.10.2024 13:27:23:67,1534,2,0,1,129299,100251,139248,32,-988,205
05.10.2024 13:27:23:71,1535,2,0,1,129294,100241,139242,32,-987,203
05.10.2024 13:27:23:75,1536,2,0,1,129292,100243,139248,30,-992,205
05.10.2024 13:27:23:79,1537,2,0,1,129298,100246,139252,31,-988,204
05.10.2024 13:27:23:83,1538,2,0,1,129292,100243,139251,30,-990,205
05.10.2024 13:27:23:86,1539,2,0,1,129293,100255,139247,29,-990,203
05.10.2024 13:27:23:90,1540,2,0,1,129289,100262,139250,32,-988,203
05.10.2024 13:27:23:94,1541,2,0,1,129289,100264,139257,33,-991,207
05.10.2024 13:27:23:98,1542,2,0,1,129289,100274,139247,29,-989,203
05.10.2024 13:27:23:102,1543,2,0,1,129291,100262,139252,28,-991,205
05.10.2024 13:27:23:106,1544,2,0,1,129288,100275,139247,35,-990,209
05.10.2024 13:27:23:110,1545,2,0,1,129291,100284,139252,33,-991,211
05.10.2024 13:27:23:114,1546,2,0,1,129290,100290,139251,34,-986,208
05.10.2024 13:27:23:118,1547,2,0,1,129286,100289,139255,32,-991,204
05.10.2024 13:27:23:122,1548,2,0,1,129288,100289,139256,30,-990,201
05.10.2024 13:27:23:125,1549,2,0,1,129285,100291,139262,35,-988,209
05.10.2024 13:27:23:129,1550,2,0,1,129284,100304,139260,35,-989,205
05.10.2024 13:27:23:133,1551,2,0,1,129289,100311,139259,33,-991,206
05.10.2024 13:27:23:137,1552,2,0,1,129289,100310,139261,32,-986,204
05.10.2024 13:27:23:141,1553,2,0,1,129288,100309,139256,29,-988,205
05.10.2024 13:27:23:145,1554,2,0,1,129292,100317,139259,33,-990,203
05.10.2024 13:27:23:149,1555,2,0,1,129285,100323,139264,31,-991,209
05.10.2024 13:27:23:153,1556,2,0,1,129288,100330,139267,27,-990,209
05.10.2024 13:27:23:157,1557,2,0,1,129289,100324,139261,34,-986,204
05.10.2024 13:27:23:161,1558,2,0,1,129281,100331,139264,30,-989,207
05.10.2024 13:27:23:164,1559,2,0,1,129290,100345,139265,32,-990,202
05.10.2024 13:27:23:168,1560,2,0,1,129287,100344,139271,32,-991,204
05.10.2024 13:27:23:172,1561,2,0,1,129288,100352,139264,33,-994,208
05.10.2024 13:27:23:176,1562,2,0,1,129289,100353,139271,30,-992,208
05.10.2024 13:27:23:180,1563,2,0,1,129284,100355,139274,32,-987,206
05.10.2024 13:27:23:184,1564,2,0,1,129290,100364,139272,31,-991,207
05.10.2024 13:27:23:188,1565,2,0,1,129282,100367,139276,30,-989,209
05.10.2024 13:27:23:192,1566,2,0,1,129291,100376,139276,33,-991,205
05.10.2024 13:27:23:196,1567,2,0,1,129287,100382,139275,35,-993,209
05.10.2024 13:27:23:200,1568,2,0,1,129286,100379,139272,29,-991,204
05.10.2024 13:27:23:203,1569,2,0,1,129284,100383,139279,33,-989,209
05.10.2024 13:27:23:207,1570,2,0,1,129289,100387,139275,33,-995,210
05.10.2024 13:27:23:211,1571,2,0,1,129285,100377,139279,33,-989,205
05.10.2024 13:27:23:215,1572,2,0,1,129286,100398,139286,34,-990,207
05.10.2024 13:27:23:219,1573,2,0,1,129286,100392,139279,28,-995,207
05.10.2024 13:27:23:223,1574,2,0,1,129282,100408,139286,35,-993,203
05.10.2024 13:27:23:227,1575,2,0,1,129287,100419,139289,31,-993,204
05.10.2024 13:27:23:231,1576,2,0,1,129283,100411,139292,32,-995,207
05.10.2024 13:27:23:235,1577,2,0,1,129284,100418,139287,37,-995,208
05.10.2024 13:27:23:239,1578,2,0,1,129286,100421,139284,37,-994,205
05.10.2024 13:27:23:242,1579,2,0,1,129285,100427,139286,33,-990,208
05.10.2024 13:27:23:246,1580,2,0,1,129285,100426,139284,36,-991,210
05.10.2024 13:27:23:250,1581,2,0,1,129285,100433,139283,35,-991,208
05.10.2024 13:27:23:254,1582,2,0,1,129283,100432,139284,34,-993,207
05.10.2024 13:27:23:258,1583,2,0,1,129285,100442,139290,33,-987,208
05.10.2024 13:27:23:262,1584,2,0,1,129288,100448,139284,33,-990,203
05.10.2024 13:27:23:266,1585,2,0,1,129285,100451,139283,39,-991,211
05.10.2024 13:27:23:270,1586,2,0,1,129282,100446,139282,39,-994,206
05.10.2024 13:27:23:274,1587,2,0,1,129279,100458,139283,34,-990,204
05.10.2024 13:27:23:278,1588,2,0,1,129275,100451,139279,39,-994,208
05.10.2024 13:27:23:281,1589,2,0,1,129276,100461,139274,34,-992,203
05.10.2024 13:27:23:285,1590,2,0,1,129276,100448,139268,34,-989,210
05.10.2024 13:27:23:289,1591,2,0,1,129266,100446,139259,36,-990,205
05.10.2024 13:27:23:293,1592,2,0,1,129266,100445,139253,34,-987,207
05.10.2024 13:27:23:297,1593,2,0,1,129264,100445,139245,34,-987,207
05.10.2024 13:27:23:301,1594,2,0,1,129260,100429,139240,36,-992,205
05.10.2024 13:27:23:305,1595,2,0,1,129257,100419,139236,30,-992,206
05.10.2024 13:27:23:309,1596,2,0,1,129256,100416,139237,36,-988,208
05.10.2024 13:27:23:313,1597,2,0,1,129250,100410,139223,37,-986,207
05.10.2024 13:27:23:317,1598,2,0,1,129249,100398,139224,32,-988,207
05.10.2024 13:27:23:320,1599,2,0,1,129249,100389,139215,33,-988,204
05.10.2024 13:27:23:324,1600,2,0,1,129244,100373,139208,29,-987,204
05.10.2024 13:27:23:328,1601,2,0,1,129243,100365,139204,33,-987,206
05.10.2024 13:27:23:332,1602,2,0,1,129239,100352,139200,32,-991,205
05.10.2024 13:27:23:336,1603,2,0,1,129234,100331,139197,33,-984,207
05.10.2024 13:27:23:340,1604,2,0,1,129232,100317,139196,34,-989,204
05.10.2024 13:27:23:344,1605,2,0,1,129237,100311,139191,27,-989,207
05.10.2024 13:27:23:348,1606,2,0,1,129235,100306,139187,28,-990,204
05.10.2024 13:27:23:352,1607,2,0,1,129226,100292,139178,31,-993,208
05.10.2024 13:27:23:356,1608,2,0,1,129226,100272,139177,33,-993,205
05.10.2024 13:27:23:359,1609,2,0,1,129229,100259,139180,32,-993,207
05.10.2024 13:27:23:363,1610,2,0,1,129229,100257,139178,31,-991,204
05.10.2024 13:27:23:367,1611,2,0,1,129223,100246,139175,29,-989,206
05.10.2024 13:27:23:371,1612,2,0,1,129228,100246,139167,30,-995,204
05.10.2024 13:27:23:375,1613,2,0,1,129219,100223,139165,36,-993,204
05.10.2024 13:27:23:379,1614,2,0,1,129221,100221,139174,35,-992,207
05.10.2024 13:27:23:383,1615,2,0,1,129222,100218,139170,35,-994,206
05.10.2024 13:27:23:387,1616,2,0,1,129214,100207,139169,29,-994,206
05.10.2024 13:27:23:391,1617,2,0,1,129226,100197,139172,33,-992,203
05.10.2024 13:27:23:395,1618,2,0,1,129220,100193,139168,32,-992,205
05.10.2024 13:27:23:398,1619,2,0,1,129219,100189,139165,33,-994,203
05.10.2024 13:27:23:402,1620,2,0,1,129218,100193,139168,31,-990,206
05.10.2024 13:27:23:406,1621,2,0,1,129215,100178,139163,35,-997,205
05.10.2024 13:27:23:410,1622,2,0,1,129215,100183,139166,36,-993,209
05.10.2024 13:27:23:414,1623,2,0,1,129219,100171,139162,36,-996,203
05.10.2024 13:27:23:418,1624,2,0,1,129212,100186,139166,35,-991,205
05.10.2024 13:27:23:422,1625,2,0,1,129219,100181,139165,34,-991,206
05.10.2024 13:27:23:426,1626,2,0,1,129213,100182,139167,36,-995,209
05.10.2024 13:27:23:430,1627,2,0,1,129211,100167,139171,37,-990,206
05.10.2024 13:27:23:434,1628,2,0,1,129210,100169,139167,35,-993,207
05.10.2024 13:27:23:437,1629,2,0,1,129214,100169,139172,34,-992,207
05.10.2024 13:27:23:441,1630,2,0,1,129211,100177,139165,34,-987,203
05.10.2024 13:27:23:445,1631,2,0,1,129214,100165,139174,31,-985,210
05.10.2024 13:27:23:449,1632,2,0,1,129212,100166,139173,31,-986,206
05.10.2024 13:27:23:453,1633,2,0,1,129215,100167,139175,33,-991,207
05.10.2024 13:27:23:457,1634,2,0,1,129215,100166,139174,34,-987,205
05.10.2024 13:27:23:461,1635,2,0,1,129216,100167,139180,34,-984,204
05.10.2024 13:27:23:465,1636,2,0,1,129212,100169,139170,33,-986,207
05.10.2024 13:27:23:469,1637,2,0,1,129215,100173,139173,31,-991,209
05.10.2024 13:27:23:473,1638,2,0,1,129217,100172,139180,37,-989,210
05.10.2024 13:27:23:476,1639,2,0,1,129210,100172,139177,31,-986,203
05.10.2024 13:27:23:480,1640,2,0,1,129213,100178,139179,34,-985,205
05.10.2024 13:27:23:484,1641,2,0,1,129213,100174,139186,36,-986,206
05.10.2024 13:27:23:488,1642,2,0,1,129221,100177,139188,37,-986,205
05.10.2024 13:27:23:492,1643,2,0,1,129215,100176,139189,35,-991,208
05.10.2024 13:27:23:496,1644,2,0,1,129215,100183,139192,32,-987,209
05.10.2024 13:27:23:500,1645,2,0,1,129217,100178,139191,35,-989,207
05.10.2024 13:27:23:504,1646,2,0,1,129215,100186,139190,34,-990,209
05.10.2024 13:27:23:508,1647,2,0,1,129220,100183,139188,33,-988,206
05.10.2024 13:27:23:512,1648,2,0,1,129218,100194,139193,32,-991,207
05.10.2024 13:27:23:515,1649,2,0,1,129221,100192,139194,34,-992,208
05.10.2024 13:27:23:519,1650,2,0,1,129223,100193,139197,38,-992,206
05.10.2024 13:27:23:523,1651,2,0,1,129221,100201,139200,37,-989,207
05.10.2024 13:27:23:527,1652,2,0,1,129222,100201,139201,36,-990,208
05.10.2024 13:27:23:531,1653,2,0,1,129222,100202,139200,37,-995,203
05.10.2024 13:27:23:535,1654,2,0,1,129214,100207,139199,30,-990,205
05.10.2024 13:27:23:539,1655,2,0,1,129214,100214,139201,32,-992,209
05.10.2024 13:27:23:543,1656,2,0,1,129215,100212,139206,35,-996,203
05.10.2024 13:27:23:547,1657,2,0,1,129222,100214,139208,35,-988,205
05.10.2024 13:27:23:551,1658,2,0,1,129219,100229,139207,31,-992,208
05.10.2024 13:27:23:554,1659,2,0,1,129218,100216,139201,30,-992,206
05.10.2024 13:27:23:558,1660,2,0,1,129222,100222,139205,36,-989,208
05.10.2024 13:27:23:562,1661,2,0,1,129218,100224,139204,34,-992,206
05.10.2024 13:27:23:566,1662,2,0,1,129219,100227,139202,32,-990,209
05.10.2024 13:27:23:570,1663,2,0,1,129218,100230,139207,37,-991,208
05.10.2024 13:27:23:574,1664,2,0,1,129218,100233,139204,33,-990,210
05.10.2024 13:27:23:578,1665,2,0,1,129223,100232,139199,39,-993,206
05.10.2024 13:27:23:582,1666,2,0,1,129222,100233,139196,33,-990,211
05.10.2024 13:27:23:586,1667,2,0,1,129221,100229,139202,34,-992,205
05.10.2024 13:27:23:590,1668,2,0,1,129218,100243,139201,33,-986,212
05.10.2024 13:27:23:593,1669,2,0,1,129218,100226,139197,33,-988,208
05.10.2024 13:27:23:597,1670,2,0,1,129210,100234,139198,35,-986,208
05.10.2024 13:27:23:601,1671,2,0,1,129216,100226,139193,35,-993,209
05.10.2024 13:27:23:605,1672,2,0,1,129211,100231,139201,38,-990,211
05.10.2024 13:27:23:609,1673,2,0,1,129210,100234,139198,40,-988,208
05.10.2024 13:27:23:613,1674,2,0,1,129207,100228,139194,37,-988,210
05.10.2024 13:27:23:617,1675,2,0,1,129211,100222,139199,34,-986,207
05.10.2024 13:27:23:621,1676,2,0,1,129213,100226,139187,34,-987,205
05.10.2024 13:27:23:625,1677,2,0,1,129205,100227,139194,36,-990,212
05.10.2024 13:27:23:629,1678,2,0,1,129209,100223,139196,38,-991,208
05.10.2024 13:27:23:632,1679,2,0,1,129208,100220,139194,40,-987,206
05.10.2024 13:27:23:636,1680,2,0,1,129210,100219,139196,36,-988,206
05.10.2024 13:27:23:640,1681,2,0,1,129206,100222,139193,37,-986,209
05.10.2024 13:27:23:644,1682,2,0,1,129211,100223,139193,37,-988,207
05.10.2024 13:27:23:648,1683,2,0,1,129207,100217,139195,36,-991,210
05.10.2024 13:27:23:652,1684,2,0,1,129212,100213,139193,39,-987,206
05.10.2024 13:27:23:656,1685,2,0,1,129200,100226,139192,37,-986,205
05.10.2024 13:27:23:660,1686,2,0,1,129208,100223,139187,32,-988,206
05.10.2024 13:27:23:664,1687,2,0,1,129209,100225,139190,37,-986,207
05.10.2024 13:27:23:668,1688,2,0,1,129207,100214,139195,35,-987,202
05.10.2024 13:27:23:671,1689,2,0,1,129210,100219,139194,34,-988,206
05.10.2024 13:27:23:675,1690,2,0,1,129208,100222,139194,36,-989,210
05.10.2024 13:27:23:679,1691,2,0,1,129206,100228,139194,39,-990,205
05.10.2024 13:27:23:683,1692,2,0,1,129210,100212,139196,36,-992,206
05.10.2024 13:27:23:687,1693,2,0,1,129210,100217,139191,35,-990,210
05.10.2024 13:27:23:691,1694,2,0,1,129214,100220,139194,35,-991,206
05.10.2024 13:27:23:695,1695,2,0,1,129216,100231,139206,36,-989,208
05.10.2024 13:27:23:699,1696,2,0,1,129213,100236,139201,36,-992,204
05.10.2024 13:27:23:703,1697,2,0,1,129216,100231,139201,34,-989,202
05.10.2024 13:27:23:707,1698,2,0,1,129215,100233,139205,39,-991,207
05.10.2024 13:27:23:710,1699,2,0,1,129215,100246,139207,33,-991,204
05.10.2024 13:27:23:714,1700,2,0,1,129216,100241,139206,34,-992,206
05.10.2024 13:27:23:718,1701,2,0,1,129217,100248,139211,37,-990,206
05.10.2024 13:27:23:722,1702,2,0,1,129216,100239,139211,36,-987,212
05.10.2024 13:27:23:726,1703,2,0,1,129219,100254,139210,34,-987,208
05.10.2024 13:27:23:730,1704,2,0,1,129216,100259,139212,37,-987,203
05.10.2024 13:27:23:734,1705,2,0,1,129216,100257,139220,37,-985,207
05.10.2024 13:27:23:738,1706,2,0,1,129223,100263,139218,32,-986,206
05.10.2024 13:27:23:742,1707,2,0,1,129221,100278,139219,40,-991,208
05.10.2024 13:27:23:745,1708,2,0,1,129219,100272,139215,37,-991,204
05.10.2024 13:27:23:749,1709,2,0,1,129228,100277,139217,36,-985,207
05.10.2024 13:27:23:753,1710,2,0,1,129223,100272,139219,33,-985,207
05.10.2024 13:27:23:757,1711,2,0,1,129219,100279,139225,30,-985,205
05.10.2024 13:27:23:761,1712,2,0,1,129224,100289,139220,31,-991,203
05.10.2024 13:27:23:765,1713,2,0,1,129219,100283,139221,40,-986,203
05.10.2024 13:27:23:769,1714,2,0,1,129225,100285,139229,32,-991,207
05.10.2024 13:27:23:773,1715,2,0,1,129230,100292,139226,37,-989,205
05.10.2024 13:27:23:777,1716,2,0,1,129227,100303,139227,34,-993,204
05.10.2024 13:27:23:781,1717,2,0,1,129226,100298,139229,37,-991,207
05.10.2024 13:27:23:784,1718,2,0,1,129226,100310,139226,35,-989,207
05.10.2024 13:27:23:788,1719,2,0,1,129228,100305,139236,33,-991,204
05.10.2024 13:27:23:792,1720,2,0,1,129233,100312,139230,35,-990,211
05.10.2024 13:27:23:796,1721,2,0,1,129227,100322,139229,34,-989,203
05.10.2024 13:27:23:800,1722,2,0,1,129230,100316,139236,33,-996,206
05.10.2024 13:27:23:804,1723,2,0,1,129233,100329,139237,34,-993,206
05.10.2024 13:27:23:808,1724,2,0,1,129233,100342,139236,38,-997,207
05.10.2024 13:27:23:812,1725,2,0,1,129235,100329,139244,35,-991,209
05.10.2024 13:27:23:816,1726,2,0,1,129233,100343,139238,30,-992,214
05.10.2024 13:27:23:820,1727,2,0,1,129240,100346,139244,31,-991,203
05.10.2024 13:27:23:823,1728,2,0,1,129234,100345,139242,31,-994,208
05.10.2024 13:27:23:827,1729,2,0,1,129237,100358,139246,37,-988,206
05.10.2024 13:27:23:831,1730,2,0,1,129241,100353,139251,34,-990,209
05.10.2024 13:27:23:835,1731,2,0,1,129244,100361,139252,31,-991,207
05.10.2024 13:27:23:839,1732,2,0,1,129240,100371,139252,31,-989,212
05.10.2024 13:27:23:843,1733,2,0,1,129242,100369,139254,33,-993,211
05.10.2024 13:27:23:847,1734,2,0,1,129245,100367,139249,30,-995,210
05.10.2024 13:27:23:851,1735,2,0,1,129241,100374,139252,37,-990,208
05.10.2024 13:27:23:855,1736,2,0,1,129247,100374,139255,33,-995,210
05.10.2024 13:27:23:859,1737,2,0,1,129244,100390,139251,33,-995,204
05.10.2024 13:27:23:862,1738,2,0,1,129244,100384,139257,31,-989,207
05.10.2024 13:27:23:866,1739,2,0,1,129249,100387,139257,31,-989,207
05.10.2024 13:27:23:870,1740,2,0,1,129246,100392,139256,32,-999,204
05.10.2024 13:27:23:874,1741,2,0,1,129244,100389,139258,35,-992,207
05.10.2024 13:27:23:878,1742,2,0,1,129245,100397,139261,31,-989,203
05.10.2024 13:27:23:882,1743,2,0,1,129248,100399,139266,39,-988,206
05.10.2024 13:27:23:886,1744,2,0,1,129245,100404,139263,36,-983,206
05.10.2024 13:27:23:890,1745,2,0,1,129250,100413,139264,32,-986,208
05.10.2024 13:27:23:894,1746,2,0,1,129252,100407,139264,36,-986,210
05.10.2024 13:27:23:898,1747,2,0,1,129249,100415,139268,30,-983,208
05.10.2024 13:27:23:901,1748,2,0,1,129248,100412,139263,38,-988,209
05.10.2024 13:27:23:905,1749,2,0,1,129254,100416,139271,36,-985,208
05.10.2024 13:27:23:909,1750,2,0,1,129256,100424,139269,30,-985,210
05.10.2024 13:27:23:913,1751,2,0,1,129254,100419,139273,34,-984,206
05.10.2024 13:27:23:917,1752,2,0,1,129255,100434,139283,28,-985,210
05.10.2024 13:27:23:921,1753,2,0,1,129261,100433,139275,32,-986,203
05.10.2024 13:27:23:925,1754,2,0,1,129262,100436,139278,34,-991,207
05.10.2024 13:27:23:929,1755,2,0,1,129262,100443,139280,36,-987,207
05.10.2024 13:27:23:933,1756,2,0,1,129266,100440,139282,32,-990,202
05.10.2024 13:27:23:937,1757,2,0,1,129265,100459,139277,34,-989,205
05.10.2024 13:27:23:940,1758,2,0,1,129267,100451,139285,29,-992,203
05.10.2024 13:27:23:944,1759,2,0,1,129270,100455,139288,31,-993,205
05.10.2024 13:27:23:948,1760,2,0,1,129268,100464,139284,34,-990,205
05.10.2024 13:27:23:952,1761,2,0,1,129266,100465,139289,32,-991,206
05.10.2024 13:27:23:956,1762,2,0,1,129270,100470,139288,34,-992,206
05.10.2024 13:27:23:960,1763,2,0,1,129274,100480,139287,37,-994,208
05.10.2024 13:27:23:964,1764,2,0,1,129277,100481,139295,31,-991,207
05.10.2024 13:27:23:968,1765,2,0,1,129279,100494,139297,31,-994,212
05.10.2024 13:27:23:972,1766,2,0,1,129277,100497,139298,40,-991,207
05.10.2024 13:27:23:976,1767,2,0,1,129281,100497,139295,33,-992,206
05.10.2024 13:27:23:979,1768,2,0,1,129278,100504,139303,33,-992,208
05.10.2024 13:27:23:983,1769,2,0,1,129282,100517,139302,36,-995,208
05.10.2024 13:27:23:987,1770,2,0,1,129285,100520,139307,33,-991,209
05.10.2024 13:27:23:991,1771,2,0,1,129286,100522,139305,31,-996,203
05.10.2024 13:27:23:995,1772,2,0,1,129286,100523,139303,32,-990,211
05.10.2024 13:27:23:999,1773,2,0,1,129287,100523,139307,33,-998,209
05.10.2024 13:27:24:3,1774,2,0,1,129288,100538,139308,34,-995,204
05.10.2024 13:27:24:7,1775,2,0,1,129288,100540,139306,34,-995,211
05.10.2024 13:27:24:11,1776,2,0,1,129290,100549,139304,36,-990,204
05.10.2024 13:27:24:15,1777,2,0,1,129295,100549,139307,35,-996,208
05.10.2024 13:27:24:18,1778,2,0,1,129289,100556,139309,37,-995,209
05.10.2024 13:27:24:22,1779,2,0,1,129290,100562,139318,33,-993,208
05.10.2024 13:27:24:26,1780,2,0,1,129296,100573,139317,38,-990,212
05.10.2024 13:27:24:30,1781,2,0,1,129294,100581,139319,38,-991,208
05.10.2024 13:27:24:34,1782,2,0,1,129298,100571,139322,40,-990,205
05.10.2024 13:27:24:38,1783,2,0,1,129299,100580,139315,33,-993,209
