Timestamp[Day.Month.Year Hour:Minute:Second:Milisecond],sampleNum,tagLEDC1_PD1,tagLEDC2_PD1,tagLEDC3_PD1,LED1_PPG1,LED2_PPG1,LED3_PPG1,ACC_X[mg],ACC_Y[mg],ACC_Z[mg]
05.10.2024 13:29:57:498,1,2,0,1,138775,108371,143225,37,-986,223
05.10.2024 13:29:57:502,2,2,0,1,138784,108378,143218,38,-988,225
05.10.2024 13:29:57:506,3,2,0,1,138780,108387,143216,35,-992,224
05.10.2024 13:29:57:510,4,2,0,1,138789,108385,143204,35,-990,225
05.10.2024 13:29:57:514,5,2,0,1,138782,108382,143195,40,-988,221
05.10.2024 13:29:57:518,6,2,0,1,138790,108401,143194,39,-990,222
05.10.2024 13:29:57:522,7,2,0,1,138785,108404,143188,36,-989,225
05.10.2024 13:29:57:526,8,2,0,1,138788,108416,143178,40,-991,221
05.10.2024 13:29:57:530,9,2,0,1,138797,108420,143177,35,-987,223
05.10.2024 13:29:57:533,10,2,0,1,138794,108423,143172,41,-988,223
05.10.2024 13:29:57:537,11,2,0,1,138800,108428,143165,37,-990,225
05.10.2024 13:29:57:541,12,2,0,1,138799,108435,143165,40,-988,223
05.10.2024 13:29:57:545,13,2,0,1,138805,108438,143157,39,-985,218
05.10.2024 13:29:57:549,14,2,0,1,138801,108446,143154,38,-990,221
05.10.2024 13:29:57:553,15,2,0,1,138805,108444,143142,40,-991,223
05.10.2024 13:29:57:557,16,2,0,1,138798,108447,143131,37,-989,220
05.10.2024 13:29:57:561,17,2,0,1,138799,108453,143129,37,-985,215
05.10.2024 13:29:57:565,18,2,0,1,138799,108443,143114,38,-985,215
05.10.2024 13:29:57:569,19,2,0,1,138798,108443,143104,42,-985,221
05.10.2024 13:29:57:572,20,2,0,1,138790,108435,143091,40,-987,222
05.10.2024 13:29:57:576,21,2,0,1,138794,108420,143088,39,-988,219
05.10.2024 13:29:57:580,22,2,0,1,138790,108413,143067,39,-984,226
05.10.2024 13:29:57:584,23,2,0,1,138784,108399,143058,38,-983,217
05.10.2024 13:29:57:588,24,2,0,1,138786,108382,143051,42,-983,224
05.10.2024 13:29:57:592,25,2,0,1,138778,108359,143033,41,-983,225
05.10.2024 13:29:57:596,26,2,0,1,138777,108349,143025,36,-983,225
05.10.2024 13:29:57:600,27,2,0,1,138774,108314,143016,34,-984,222
05.10.2024 13:29:57:604,28,2,0,1,138778,108288,143003,38,-981,224
05.10.2024 13:29:57:608,29,2,0,1,138773,108269,143005,37,-988,221
05.10.2024 13:29:57:611,30,2,0,1,138764,108239,142988,35,-989,226
05.10.2024 13:29:57:615,31,2,0,1,138767,108220,142979,35,-982,219
05.10.2024 13:29:57:619,32,2,0,1,138766,108184,142965,38,-987,219
05.10.2024 13:29:57:623,33,2,0,1,138766,108174,142955,37,-987,222
05.10.2024 13:29:57:627,34,2,0,1,138766,108139,142949,31,-986,218
05.10.2024 13:29:57:631,35,2,0,1,138767,108116,142949,35,-983,222
05.10.2024 13:29:57:635,36,2,0,1,138764,108096,142937,33,-986,217
05.10.2024 13:29:57:639,37,2,0,1,138761,108072,142931,34,-988,219
05.10.2024 13:29:57:643,38,2,0,1,138760,108042,142925,34,-986,217
05.10.2024 13:29:57:647,39,2,0,1,138758,108024,142919,34,-988,217
05.10.2024 13:29:57:650,40,2,0,1,138758,107999,142909,37,-986,223
05.10.2024 13:29:57:654,41,2,0,1,138761,107974,142916,34,-989,219
05.10.2024 13:29:57:658,42,2,0,1,138755,107962,142906,33,-987,225
05.10.2024 13:29:57:662,43,2,0,1,138763,107941,142899,36,-986,217
05.10.2024 13:29:57:666,44,2,0,1,138764,107936,142893,35,-992,222
05.10.2024 13:29:57:670,45,2,0,1,138761,107911,142895,36,-986,220
05.10.2024 13:29:57:674,46,2,0,1,138761,107914,142883,34,-984,215
05.10.2024 13:29:57:678,47,2,0,1,138764,107897,142887,31,-992,222
05.10.2024 13:29:57:682,48,2,0,1,138761,107882,142882,34,-991,222
05.10.2024 13:29:57:686,49,2,0,1,138762,107876,142880,35,-988,224
05.10.2024 13:29:57:689,50,2,0,1,138770,107868,142874,37,-986,220
05.10.2024 13:29:57:693,51,2,0,1,138764,107857,142871,33,-988,224
05.10.2024 13:29:57:697,52,2,0,1,138765,107858,142871,36,-988,219
05.10.2024 13:29:57:701,53,2,0,1,138766,107841,142874,37,-986,221
05.10.2024 13:29:57:705,54,2,0,1,138767,107837,142865,35,-988,224
05.10.2024 13:29:57:709,55,2,0,1,138765,107835,142869,36,-990,222
05.10.2024 13:29:57:713,56,2,0,1,138767,107829,142866,35,-987,220
05.10.2024 13:29:57:717,57,2,0,1,138768,107830,142861,34,-990,216
05.10.2024 13:29:57:721,58,2,0,1,138771,107829,142865,34,-985,222
05.10.2024 13:29:57:725,59,2,0,1,138764,107818,142862,38,-985,222
05.10.2024 13:29:57:728,60,2,0,1,138769,107815,142862,32,-989,223
05.10.2024 13:29:57:732,61,2,0,1,138773,107813,142860,36,-985,220
05.10.2024 13:29:57:736,62,2,0,1,138779,107814,142852,34,-985,220
05.10.2024 13:29:57:740,63,2,0,1,138776,107817,142853,34,-982,221
05.10.2024 13:29:57:744,64,2,0,1,138776,107812,142862,35,-985,219
05.10.2024 13:29:57:748,65,2,0,1,138776,107818,142862,35,-987,223
05.10.2024 13:29:57:752,66,2,0,1,138777,107816,142854,33,-986,220
05.10.2024 13:29:57:756,67,2,0,1,138778,107819,142856,36,-983,217
05.10.2024 13:29:57:760,68,2,0,1,138782,107815,142856,38,-987,221
05.10.2024 13:29:57:764,69,2,0,1,138782,107826,142857,36,-984,220
05.10.2024 13:29:57:767,70,2,0,1,138778,107821,142858,38,-986,223
05.10.2024 13:29:57:771,71,2,0,1,138783,107820,142852,33,-986,220
05.10.2024 13:29:57:775,72,2,0,1,138788,107815,142853,37,-986,220
05.10.2024 13:29:57:779,73,2,0,1,138787,107824,142848,37,-985,219
05.10.2024 13:29:57:783,74,2,0,1,138789,107831,142852,37,-984,221
05.10.2024 13:29:57:787,75,2,0,1,138784,107833,142849,40,-986,221
05.10.2024 13:29:57:791,76,2,0,1,138785,107838,142857,35,-984,226
05.10.2024 13:29:57:795,77,2,0,1,138795,107835,142849,38,-979,225
05.10.2024 13:29:57:799,78,2,0,1,138793,107843,142856,34,-986,223
05.10.2024 13:29:57:803,79,2,0,1,138794,107845,142853,36,-988,231
05.10.2024 13:29:57:806,80,2,0,1,138796,107851,142854,39,-985,226
05.10.2024 13:29:57:810,81,2,0,1,138798,107846,142852,38,-986,227
05.10.2024 13:29:57:814,82,2,0,1,138799,107855,142856,35,-989,224
05.10.2024 13:29:57:818,83,2,0,1,138800,107864,142854,36,-981,222
05.10.2024 13:29:57:822,84,2,0,1,138797,107861,142854,34,-988,221
05.10.2024 13:29:57:826,85,2,0,1,138800,107855,142856,34,-990,223
05.10.2024 13:29:57:830,86,2,0,1,138804,107871,142855,39,-985,223
05.10.2024 13:29:57:834,87,2,0,1,138806,107873,142861,37,-991,220
05.10.2024 13:29:57:838,88,2,0,1,138809,107872,142863,34,-988,222
05.10.2024 13:29:57:842,89,2,0,1,138808,107876,142858,37,-988,227
05.10.2024 13:29:57:845,90,2,0,1,138811,107871,142855,38,-992,225
05.10.2024 13:29:57:849,91,2,0,1,138807,107885,142855,36,-988,223
05.10.2024 13:29:57:853,92,2,0,1,138810,107880,142856,37,-986,219
05.10.2024 13:29:57:857,93,2,0,1,138818,107892,142854,35,-993,221
05.10.2024 13:29:57:861,94,2,0,1,138812,107876,142856,39,-990,219
05.10.2024 13:29:57:865,95,2,0,1,138805,107883,142847,35,-988,220
05.10.2024 13:29:57:869,96,2,0,1,138815,107886,142853,40,-987,223
05.10.2024 13:29:57:873,97,2,0,1,138816,107885,142847,37,-988,221
05.10.2024 13:29:57:877,98,2,0,1,138815,107887,142846,37,-991,223
05.10.2024 13:29:57:881,99,2,0,1,138812,107887,142844,40,-987,221
05.10.2024 13:29:57:884,100,2,0,1,138812,107883,142844,34,-988,212
05.10.2024 13:29:57:888,101,2,0,1,138818,107881,142835,38,-984,220
05.10.2024 13:29:57:892,102,2,0,1,138816,107886,142844,34,-988,223
05.10.2024 13:29:57:896,103,2,0,1,138813,107890,142832,36,-988,220
05.10.2024 13:29:57:900,104,2,0,1,138813,107875,142841,35,-989,220
05.10.2024 13:29:57:904,105,2,0,1,138820,107882,142832,35,-986,221
05.10.2024 13:29:57:908,106,2,0,1,138816,107869,142830,35,-986,221
05.10.2024 13:29:57:912,107,2,0,1,138815,107877,142829,40,-986,221
05.10.2024 13:29:57:916,108,2,0,1,138817,107861,142831,35,-988,225
05.10.2024 13:29:57:920,109,2,0,1,138815,107860,142826,32,-990,222
05.10.2024 13:29:57:923,110,2,0,1,138817,107865,142822,37,-982,225
05.10.2024 13:29:57:927,111,2,0,1,138815,107866,142826,33,-987,223
05.10.2024 13:29:57:931,112,2,0,1,138811,107864,142823,38,-987,224
05.10.2024 13:29:57:935,113,2,0,1,138807,107864,142819,32,-989,221
05.10.2024 13:29:57:939,114,2,0,1,138808,107862,142825,37,-985,226
05.10.2024 13:29:57:943,115,2,0,1,138815,107862,142820,34,-986,219
05.10.2024 13:29:57:947,116,2,0,1,138816,107857,142820,38,-985,220
05.10.2024 13:29:57:951,117,2,0,1,138819,107856,142821,38,-985,220
05.10.2024 13:29:57:955,118,2,0,1,138814,107858,142817,34,-983,220
05.10.2024 13:29:57:959,119,2,0,1,138817,107865,142812,40,-983,226
05.10.2024 13:29:57:962,120,2,0,1,138813,107859,142823,41,-988,218
05.10.2024 13:29:57:966,121,2,0,1,138817,107862,142817,34,-986,219
05.10.2024 13:29:57:970,122,2,0,1,138817,107858,142818,43,-989,223
05.10.2024 13:29:57:974,123,2,0,1,138817,107865,142816,40,-987,224
05.10.2024 13:29:57:978,124,2,0,1,138819,107871,142822,37,-990,220
05.10.2024 13:29:57:982,125,2,0,1,138823,107865,142818,35,-990,218
05.10.2024 13:29:57:986,126,2,0,1,138822,107876,142821,40,-989,221
05.10.2024 13:29:57:990,127,2,0,1,138819,107870,142826,33,-985,218
05.10.2024 13:29:57:994,128,2,0,1,138827,107873,142819,35,-985,223
05.10.2024 13:29:57:998,129,2,0,1,138823,107891,142818,38,-987,220
05.10.2024 13:29:58:1,130,2,0,1,138824,107892,142825,36,-988,218
05.10.2024 13:29:58:5,131,2,0,1,138830,107892,142820,35,-989,221
05.10.2024 13:29:58:9,132,2,0,1,138824,107901,142825,37,-989,217
05.10.2024 13:29:58:13,133,2,0,1,138824,107899,142821,34,-990,220
05.10.2024 13:29:58:17,134,2,0,1,138828,107908,142826,35,-984,223
05.10.2024 13:29:58:21,135,2,0,1,138831,107905,142826,35,-988,220
05.10.2024 13:29:58:25,136,2,0,1,138834,107908,142827,38,-988,221
05.10.2024 13:29:58:29,137,2,0,1,138833,107920,142824,34,-989,221
05.10.2024 13:29:58:33,138,2,0,1,138830,107930,142836,35,-990,219
05.10.2024 13:29:58:37,139,2,0,1,138838,107924,142826,40,-990,225
05.10.2024 13:29:58:40,140,2,0,1,138829,107930,142830,34,-986,219
05.10.2024 13:29:58:44,141,2,0,1,138833,107941,142831,36,-989,222
05.10.2024 13:29:58:48,142,2,0,1,138833,107939,142828,34,-986,217
05.10.2024 13:29:58:52,143,2,0,1,138829,107956,142832,35,-986,221
05.10.2024 13:29:58:56,144,2,0,1,138837,107962,142829,30,-987,219
05.10.2024 13:29:58:60,145,2,0,1,138839,107960,142834,38,-985,222
05.10.2024 13:29:58:64,146,2,0,1,138834,107964,142839,32,-983,221
05.10.2024 13:29:58:68,147,2,0,1,138834,107970,142837,36,-984,219
05.10.2024 13:29:58:72,148,2,0,1,138842,107985,142839,34,-986,218
05.10.2024 13:29:58:76,149,2,0,1,138837,107983,142841,38,-981,217
05.10.2024 13:29:58:79,150,2,0,1,138842,107996,142845,38,-985,222
05.10.2024 13:29:58:83,151,2,0,1,138843,108003,142841,35,-989,222
05.10.2024 13:29:58:87,152,2,0,1,138844,108003,142846,30,-983,225
05.10.2024 13:29:58:91,153,2,0,1,138844,108013,142840,32,-987,221
05.10.2024 13:29:58:95,154,2,0,1,138842,108015,142853,35,-985,212
05.10.2024 13:29:58:99,155,2,0,1,138843,108024,142850,32,-986,218
05.10.2024 13:29:58:103,156,2,0,1,138850,108040,142850,34,-990,223
05.10.2024 13:29:58:107,157,2,0,1,138849,108042,142851,33,-989,223
05.10.2024 13:29:58:111,158,2,0,1,138845,108045,142849,35,-988,219
05.10.2024 13:29:58:115,159,2,0,1,138854,108061,142853,37,-986,221
05.10.2024 13:29:58:118,160,2,0,1,138853,108063,142855,31,-986,226
05.10.2024 13:29:58:122,161,2,0,1,138855,108064,142863,33,-987,219
05.10.2024 13:29:58:126,162,2,0,1,138856,108064,142860,37,-986,219
05.10.2024 13:29:58:130,163,2,0,1,138857,108077,142858,35,-990,223
05.10.2024 13:29:58:134,164,2,0,1,138862,108084,142860,35,-992,218
05.10.2024 13:29:58:138,165,2,0,1,138862,108094,142859,37,-989,220
05.10.2024 13:29:58:142,166,2,0,1,138861,108091,142863,37,-987,220
05.10.2024 13:29:58:146,167,2,0,1,138869,108101,142865,31,-990,224
05.10.2024 13:29:58:150,168,2,0,1,138875,108105,142865,40,-987,221
05.10.2024 13:29:58:154,169,2,0,1,138870,108114,142867,37,-985,221
05.10.2024 13:29:58:157,170,2,0,1,138871,108116,142868,39,-988,221
05.10.2024 13:29:58:161,171,2,0,1,138882,108132,142870,34,-985,221
05.10.2024 13:29:58:165,172,2,0,1,138878,108131,142870,40,-989,219
05.10.2024 13:29:58:169,173,2,0,1,138883,108138,142877,37,-989,220
05.10.2024 13:29:58:173,174,2,0,1,138881,108137,142877,34,-991,226
05.10.2024 13:29:58:177,175,2,0,1,138880,108153,142879,36,-985,221
05.10.2024 13:29:58:181,176,2,0,1,138885,108154,142878,35,-983,225
05.10.2024 13:29:58:185,177,2,0,1,138886,108166,142882,37,-986,223
05.10.2024 13:29:58:189,178,2,0,1,138892,108164,142883,30,-986,222
05.10.2024 13:29:58:193,179,2,0,1,138893,108178,142886,39,-985,223
05.10.2024 13:29:58:196,180,2,0,1,138893,108180,142881,40,-986,222
05.10.2024 13:29:58:200,181,2,0,1,138891,108177,142884,40,-986,224
05.10.2024 13:29:58:204,182,2,0,1,138894,108187,142886,36,-988,222
05.10.2024 13:29:58:208,183,2,0,1,138897,108186,142881,38,-987,220
05.10.2024 13:29:58:212,184,2,0,1,138890,108182,142884,35,-988,226
05.10.2024 13:29:58:216,185,2,0,1,138899,108198,142877,35,-989,220
05.10.2024 13:29:58:220,186,2,0,1,138897,108204,142878,37,-990,227
05.10.2024 13:29:58:224,187,2,0,1,138889,108210,142889,40,-987,225
05.10.2024 13:29:58:228,188,2,0,1,138892,108212,142885,32,-985,225
05.10.2024 13:29:58:232,189,2,0,1,138890,108219,142884,34,-984,223
05.10.2024 13:29:58:235,190,2,0,1,138889,108231,142885,34,-985,229
05.10.2024 13:29:58:239,191,2,0,1,138892,108228,142889,36,-986,224
05.10.2024 13:29:58:243,192,2,0,1,138897,108238,142888,34,-989,225
05.10.2024 13:29:58:247,193,2,0,1,138892,108234,142891,33,-988,221
05.10.2024 13:29:58:251,194,2,0,1,138898,108255,142898,33,-988,222
05.10.2024 13:29:58:255,195,2,0,1,138900,108251,142888,36,-987,223
05.10.2024 13:29:58:259,196,2,0,1,138895,108260,142889,32,-988,220
05.10.2024 13:29:58:263,197,2,0,1,138892,108262,142888,38,-989,223
05.10.2024 13:29:58:267,198,2,0,1,138892,108270,142889,37,-991,223
05.10.2024 13:29:58:271,199,2,0,1,138892,108282,142888,33,-985,216
05.10.2024 13:29:58:274,200,2,0,1,138896,108282,142891,36,-986,227
05.10.2024 13:29:58:278,201,2,0,1,138887,108296,142890,33,-993,224
05.10.2024 13:29:58:282,202,2,0,1,138894,108300,142893,40,-987,225
05.10.2024 13:29:58:286,203,2,0,1,138893,108306,142893,36,-987,223
05.10.2024 13:29:58:290,204,2,0,1,138887,108304,142897,41,-985,224
05.10.2024 13:29:58:294,205,2,0,1,138894,108324,142891,34,-986,223
05.10.2024 13:29:58:298,206,2,0,1,138886,108327,142892,36,-986,225
05.10.2024 13:29:58:302,207,2,0,1,138886,108327,142892,40,-983,219
05.10.2024 13:29:58:306,208,2,0,1,138893,108331,142885,38,-985,222
05.10.2024 13:29:58:310,209,2,0,1,138891,108350,142889,35,-987,221
05.10.2024 13:29:58:313,210,2,0,1,138889,108345,142891,34,-983,222
05.10.2024 13:29:58:317,211,2,0,1,138885,108353,142889,38,-985,223
05.10.2024 13:29:58:321,212,2,0,1,138887,108359,142894,37,-987,222
05.10.2024 13:29:58:325,213,2,0,1,138887,108371,142894,41,-984,221
05.10.2024 13:29:58:329,214,2,0,1,138891,108373,142893,38,-985,227
05.10.2024 13:29:58:333,215,2,0,1,138892,108389,142890,35,-984,220
05.10.2024 13:29:58:337,216,2,0,1,138888,108396,142890,38,-985,225
05.10.2024 13:29:58:341,217,2,0,1,138891,108412,142893,35,-984,221
05.10.2024 13:29:58:345,218,2,0,1,138888,108411,142897,35,-985,226
05.10.2024 13:29:58:349,219,2,0,1,138885,108421,142895,33,-985,226
05.10.2024 13:29:58:352,220,2,0,1,138887,108429,142895,35,-986,225
05.10.2024 13:29:58:356,221,2,0,1,138882,108429,142902,35,-989,227
05.10.2024 13:29:58:360,222,2,0,1,138882,108439,142901,34,-985,225
05.10.2024 13:29:58:364,223,2,0,1,138882,108444,142906,33,-987,224
05.10.2024 13:29:58:368,224,2,0,1,138883,108449,142901,34,-988,227
05.10.2024 13:29:58:372,225,2,0,1,138881,108447,142900,38,-991,220
05.10.2024 13:29:58:376,226,2,0,1,138883,108472,142906,36,-989,222
05.10.2024 13:29:58:380,227,2,0,1,138882,108473,142901,36,-990,223
05.10.2024 13:29:58:384,228,2,0,1,138880,108477,142908,40,-992,222
05.10.2024 13:29:58:388,229,2,0,1,138884,108487,142901,37,-990,229
05.10.2024 13:29:58:391,230,2,0,1,138883,108501,142905,35,-992,223
05.10.2024 13:29:58:395,231,2,0,1,138882,108511,142905,40,-989,222
05.10.2024 13:29:58:399,232,2,0,1,138883,108518,142910,38,-988,222
05.10.2024 13:29:58:403,233,2,0,1,138881,108526,142911,37,-983,226
05.10.2024 13:29:58:407,234,2,0,1,138881,108526,142912,41,-986,225
05.10.2024 13:29:58:411,235,2,0,1,138883,108532,142906,37,-987,223
05.10.2024 13:29:58:415,236,2,0,1,138883,108542,142903,39,-986,225
05.10.2024 13:29:58:419,237,2,0,1,138886,108547,142915,40,-988,224
05.10.2024 13:29:58:423,238,2,0,1,138882,108556,142918,42,-987,224
05.10.2024 13:29:58:427,239,2,0,1,138885,108556,142910,40,-982,222
05.10.2024 13:29:58:430,240,2,0,1,138881,108563,142906,40,-987,220
05.10.2024 13:29:58:434,241,2,0,1,138880,108564,142899,43,-985,219
05.10.2024 13:29:58:438,242,2,0,1,138874,108567,142899,40,-989,222
05.10.2024 13:29:58:442,243,2,0,1,138869,108561,142884,42,-988,223
05.10.2024 13:29:58:446,244,2,0,1,138864,108558,142879,42,-991,221
05.10.2024 13:29:58:450,245,2,0,1,138863,108553,142875,37,-986,222
05.10.2024 13:29:58:454,246,2,0,1,138853,108548,142865,40,-989,221
05.10.2024 13:29:58:458,247,2,0,1,138845,108538,142850,39,-988,221
05.10.2024 13:29:58:462,248,2,0,1,138842,108508,142846,38,-987,220
05.10.2024 13:29:58:466,249,2,0,1,138841,108499,142842,42,-987,225
05.10.2024 13:29:58:469,250,2,0,1,138831,108491,142829,36,-986,223
05.10.2024 13:29:58:473,251,2,0,1,138830,108454,142823,36,-986,222
05.10.2024 13:29:58:477,252,2,0,1,138824,108434,142814,35,-988,226
05.10.2024 13:29:58:481,253,2,0,1,138827,108404,142807,37,-987,224
05.10.2024 13:29:58:485,254,2,0,1,138819,108377,142792,37,-985,221
05.10.2024 13:29:58:489,255,2,0,1,138816,108358,142789,36,-985,221
05.10.2024 13:29:58:493,256,2,0,1,138813,108336,142782,40,-986,220
05.10.2024 13:29:58:497,257,2,0,1,138805,108303,142776,40,-984,219
05.10.2024 13:29:58:501,258,2,0,1,138805,108291,142769,36,-983,222
05.10.2024 13:29:58:505,259,2,0,1,138800,108252,142757,36,-983,225
05.10.2024 13:29:58:508,260,2,0,1,138799,108230,142759,34,-988,219
05.10.2024 13:29:58:512,261,2,0,1,138794,108205,142755,34,-982,222
05.10.2024 13:29:58:516,262,2,0,1,138787,108175,142744,37,-986,223
05.10.2024 13:29:58:520,263,2,0,1,138785,108155,142746,40,-985,224
05.10.2024 13:29:58:524,264,2,0,1,138785,108134,142737,37,-987,218
05.10.2024 13:29:58:528,265,2,0,1,138778,108114,142734,37,-985,226
05.10.2024 13:29:58:532,266,2,0,1,138777,108089,142730,36,-990,222
05.10.2024 13:29:58:536,267,2,0,1,138778,108072,142729,42,-986,219
05.10.2024 13:29:58:540,268,2,0,1,138776,108063,142721,39,-986,216
05.10.2024 13:29:58:544,269,2,0,1,138775,108039,142726,35,-983,222
05.10.2024 13:29:58:547,270,2,0,1,138775,108023,142722,40,-988,224
05.10.2024 13:29:58:551,271,2,0,1,138768,108025,142718,36,-989,226
05.10.2024 13:29:58:555,272,2,0,1,138768,108005,142721,40,-987,215
05.10.2024 13:29:58:559,273,2,0,1,138762,108001,142722,40,-985,226
05.10.2024 13:29:58:563,274,2,0,1,138763,107994,142714,36,-987,221
05.10.2024 13:29:58:567,275,2,0,1,138762,107976,142715,44,-987,220
05.10.2024 13:29:58:571,276,2,0,1,138755,107982,142711,40,-984,228
05.10.2024 13:29:58:575,277,2,0,1,138761,107967,142714,40,-987,223
05.10.2024 13:29:58:579,278,2,0,1,138760,107969,142711,38,-988,227
05.10.2024 13:29:58:583,279,2,0,1,138755,107951,142714,40,-982,227
05.10.2024 13:29:58:586,280,2,0,1,138752,107964,142702,40,-988,219
05.10.2024 13:29:58:590,281,2,0,1,138756,107953,142707,40,-990,223
05.10.2024 13:29:58:594,282,2,0,1,138751,107954,142703,41,-990,223
05.10.2024 13:29:58:598,283,2,0,1,138755,107957,142706,40,-984,226
05.10.2024 13:29:58:602,284,2,0,1,138747,107944,142709,40,-987,221
05.10.2024 13:29:58:606,285,2,0,1,138741,107948,142706,38,-988,226
05.10.2024 13:29:58:610,286,2,0,1,138747,107942,142706,38,-985,220
05.10.2024 13:29:58:614,287,2,0,1,138744,107945,142706,37,-987,225
05.10.2024 13:29:58:618,288,2,0,1,138748,107951,142706,42,-986,222
05.10.2024 13:29:58:622,289,2,0,1,138746,107954,142697,40,-985,222
05.10.2024 13:29:58:625,290,2,0,1,138745,107953,142702,36,-984,223
05.10.2024 13:29:58:629,291,2,0,1,138739,107947,142709,43,-987,225
05.10.2024 13:29:58:633,292,2,0,1,138737,107955,142701,38,-984,224
05.10.2024 13:29:58:637,293,2,0,1,138739,107959,142697,40,-987,222
05.10.2024 13:29:58:641,294,2,0,1,138733,107945,142698,39,-984,224
05.10.2024 13:29:58:645,295,2,0,1,138738,107949,142701,42,-982,225
05.10.2024 13:29:58:649,296,2,0,1,138731,107950,142700,38,-986,225
05.10.2024 13:29:58:653,297,2,0,1,138733,107948,142700,40,-985,225
05.10.2024 13:29:58:657,298,2,0,1,138731,107954,142694,43,-985,223
05.10.2024 13:29:58:661,299,2,0,1,138731,107956,142698,33,-981,224
05.10.2024 13:29:58:664,300,2,0,1,138732,107960,142699,40,-980,225
05.10.2024 13:29:58:668,301,2,0,1,138733,107963,142696,37,-986,225
05.10.2024 13:29:58:672,302,2,0,1,138732,107962,142700,40,-985,227
05.10.2024 13:29:58:676,303,2,0,1,138729,107961,142701,40,-984,223
05.10.2024 13:29:58:680,304,2,0,1,138723,107979,142695,43,-985,224
05.10.2024 13:29:58:684,305,2,0,1,138723,107974,142699,39,-986,227
05.10.2024 13:29:58:688,306,2,0,1,138727,107975,142697,42,-985,224
05.10.2024 13:29:58:692,307,2,0,1,138722,107976,142702,37,-987,226
05.10.2024 13:29:58:696,308,2,0,1,138722,107996,142702,38,-987,221
05.10.2024 13:29:58:700,309,2,0,1,138727,107987,142698,40,-989,224
05.10.2024 13:29:58:703,310,2,0,1,138727,107990,142698,43,-991,224
05.10.2024 13:29:58:707,311,2,0,1,138728,107991,142701,40,-987,223
05.10.2024 13:29:58:711,312,2,0,1,138726,107996,142700,42,-988,224
05.10.2024 13:29:58:715,313,2,0,1,138724,107993,142700,43,-989,224
05.10.2024 13:29:58:719,314,2,0,1,138721,108003,142702,40,-991,225
05.10.2024 13:29:58:723,315,2,0,1,138723,108000,142698,40,-986,227
05.10.2024 13:29:58:727,316,2,0,1,138723,107996,142696,40,-988,226
05.10.2024 13:29:58:731,317,2,0,1,138717,108000,142702,41,-990,225
05.10.2024 13:29:58:735,318,2,0,1,138719,107999,142691,40,-987,226
05.10.2024 13:29:58:739,319,2,0,1,138711,108002,142697,41,-985,230
05.10.2024 13:29:58:742,320,2,0,1,138714,107995,142693,40,-984,225
05.10.2024 13:29:58:746,321,2,0,1,138714,108003,142692,36,-984,227
05.10.2024 13:29:58:750,322,2,0,1,138713,107999,142690,40,-984,235
05.10.2024 13:29:58:754,323,2,0,1,138711,107997,142692,44,-987,230
05.10.2024 13:29:58:758,324,2,0,1,138708,107995,142689,41,-985,228
05.10.2024 13:29:58:762,325,2,0,1,138706,107988,142692,42,-980,225
05.10.2024 13:29:58:766,326,2,0,1,138706,107993,142687,40,-984,229
05.10.2024 13:29:58:770,327,2,0,1,138706,107981,142681,40,-983,231
05.10.2024 13:29:58:774,328,2,0,1,138699,107968,142684,40,-982,223
05.10.2024 13:29:58:778,329,2,0,1,138705,107978,142687,37,-978,227
05.10.2024 13:29:58:781,330,2,0,1,138702,107974,142681,43,-982,227
05.10.2024 13:29:58:785,331,2,0,1,138698,107966,142683,41,-979,224
05.10.2024 13:29:58:789,332,2,0,1,138694,107965,142678,42,-979,221
05.10.2024 13:29:58:793,333,2,0,1,138698,107968,142672,40,-982,222
05.10.2024 13:29:58:797,334,2,0,1,138696,107953,142673,43,-983,221
05.10.2024 13:29:58:801,335,2,0,1,138689,107957,142670,41,-983,225
05.10.2024 13:29:58:805,336,2,0,1,138690,107953,142667,40,-981,221
05.10.2024 13:29:58:809,337,2,0,1,138687,107944,142671,38,-986,226
05.10.2024 13:29:58:813,338,2,0,1,138692,107942,142673,43,-985,222
05.10.2024 13:29:58:817,339,2,0,1,138687,107936,142666,40,-984,224
05.10.2024 13:29:58:820,340,2,0,1,138686,107938,142670,44,-983,222
05.10.2024 13:29:58:824,341,2,0,1,138679,107935,142671,46,-985,223
05.10.2024 13:29:58:828,342,2,0,1,138685,107929,142667,44,-988,229
05.10.2024 13:29:58:832,343,2,0,1,138680,107933,142666,40,-986,225
05.10.2024 13:29:58:836,344,2,0,1,138684,107931,142673,38,-990,224
05.10.2024 13:29:58:840,345,2,0,1,138684,107937,142667,43,-984,225
05.10.2024 13:29:58:844,346,2,0,1,138682,107931,142671,39,-986,223
05.10.2024 13:29:58:848,347,2,0,1,138680,107928,142667,46,-987,228
05.10.2024 13:29:58:852,348,2,0,1,138676,107928,142665,47,-987,224
05.10.2024 13:29:58:856,349,2,0,1,138685,107935,142667,37,-989,226
05.10.2024 13:29:58:859,350,2,0,1,138683,107928,142668,40,-986,225
05.10.2024 13:29:58:863,351,2,0,1,138683,107942,142673,40,-984,228
05.10.2024 13:29:58:867,352,2,0,1,138680,107936,142672,40,-983,225
05.10.2024 13:29:58:871,353,2,0,1,138684,107939,142666,41,-985,222
05.10.2024 13:29:58:875,354,2,0,1,138682,107955,142676,40,-988,226
05.10.2024 13:29:58:879,355,2,0,1,138683,107955,142667,46,-985,224
05.10.2024 13:29:58:883,356,2,0,1,138676,107950,142673,40,-986,226
05.10.2024 13:29:58:887,357,2,0,1,138678,107964,142676,35,-984,225
05.10.2024 13:29:58:891,358,2,0,1,138682,107960,142679,39,-986,227
05.10.2024 13:29:58:895,359,2,0,1,138682,107964,142680,39,-986,228
05.10.2024 13:29:58:898,360,2,0,1,138678,107965,142681,39,-986,224
05.10.2024 13:29:58:902,361,2,0,1,138674,107973,142680,40,-988,227
05.10.2024 13:29:58:906,362,2,0,1,138676,107966,142686,39,-985,227
05.10.2024 13:29:58:910,363,2,0,1,138676,107984,142687,39,-986,225
05.10.2024 13:29:58:914,364,2,0,1,138679,107980,142684,37,-985,225
05.10.2024 13:29:58:918,365,2,0,1,138676,107985,142688,38,-987,230
05.10.2024 13:29:58:922,366,2,0,1,138687,107989,142682,36,-989,229
05.10.2024 13:29:58:926,367,2,0,1,138679,107996,142689,41,-988,231
05.10.2024 13:29:58:930,368,2,0,1,138676,108002,142684,40,-985,225
05.10.2024 13:29:58:934,369,2,0,1,138677,108002,142694,40,-985,225
05.10.2024 13:29:58:937,370,2,0,1,138676,108008,142692,40,-983,223
05.10.2024 13:29:58:941,371,2,0,1,138679,108018,142691,41,-983,228
05.10.2024 13:29:58:945,372,2,0,1,138673,108018,142694,41,-991,225
05.10.2024 13:29:58:949,373,2,0,1,138679,108025,142695,40,-988,224
05.10.2024 13:29:58:953,374,2,0,1,138677,108025,142695,42,-988,227
05.10.2024 13:29:58:957,375,2,0,1,138672,108041,142694,43,-990,233
05.10.2024 13:29:58:961,376,2,0,1,138677,108049,142697,39,-984,227
05.10.2024 13:29:58:965,377,2,0,1,138672,108055,142698,41,-989,223
05.10.2024 13:29:58:969,378,2,0,1,138676,108054,142700,41,-984,228
05.10.2024 13:29:58:973,379,2,0,1,138674,108060,142699,42,-987,223
05.10.2024 13:29:58:976,380,2,0,1,138677,108060,142701,42,-984,226
05.10.2024 13:29:58:980,381,2,0,1,138671,108073,142699,43,-987,224
05.10.2024 13:29:58:984,382,2,0,1,138666,108078,142702,41,-986,224
05.10.2024 13:29:58:988,383,2,0,1,138675,108082,142696,41,-988,228
05.10.2024 13:29:58:992,384,2,0,1,138666,108088,142702,40,-986,225
05.10.2024 13:29:58:996,385,2,0,1,138667,108091,142696,40,-985,230
05.10.2024 13:29:59:0,386,2,0,1,138664,108098,142702,46,-978,223
05.10.2024 13:29:59:4,387,2,0,1,138669,108108,142704,45,-986,219
05.10.2024 13:29:59:8,388,2,0,1,138673,108112,142701,45,-984,225
05.10.2024 13:29:59:12,389,2,0,1,138661,108121,142703,43,-983,225
05.10.2024 13:29:59:15,390,2,0,1,138666,108126,142703,44,-988,226
05.10.2024 13:29:59:19,391,2,0,1,138665,108132,142707,46,-983,226
05.10.2024 13:29:59:23,392,2,0,1,138665,108133,142708,45,-983,230
05.10.2024 13:29:59:27,393,2,0,1,138666,108129,142710,46,-988,223
05.10.2024 13:29:59:31,394,2,0,1,138665,108149,142702,44,-980,223
05.10.2024 13:29:59:35,395,2,0,1,138660,108157,142704,48,-991,226
05.10.2024 13:29:59:39,396,2,0,1,138664,108156,142712,40,-986,229
05.10.2024 13:29:59:43,397,2,0,1,138665,108170,142709,45,-988,227
05.10.2024 13:29:59:47,398,2,0,1,138660,108172,142712,46,-988,221
05.10.2024 13:29:59:51,399,2,0,1,138655,108177,142707,46,-983,224
05.10.2024 13:29:59:54,400,2,0,1,138666,108188,142716,46,-982,226
05.10.2024 13:29:59:58,401,2,0,1,138666,108195,142709,47,-985,228
05.10.2024 13:29:59:62,402,2,0,1,138658,108202,142707,48,-981,228
05.10.2024 13:29:59:66,403,2,0,1,138657,108203,142708,46,-986,230
05.10.2024 13:29:59:70,404,2,0,1,138656,108213,142714,45,-984,227
05.10.2024 13:29:59:74,405,2,0,1,138659,108211,142718,46,-990,226
05.10.2024 13:29:59:78,406,2,0,1,138655,108222,142710,44,-983,228
05.10.2024 13:29:59:82,407,2,0,1,138652,108228,142718,45,-987,232
05.10.2024 13:29:59:86,408,2,0,1,138656,108233,142709,44,-986,227
05.10.2024 13:29:59:90,409,2,0,1,138654,108224,142722,44,-987,228
05.10.2024 13:29:59:93,410,2,0,1,138651,108241,142713,43,-982,226
05.10.2024 13:29:59:97,411,2,0,1,138654,108249,142712,46,-982,230
05.10.2024 13:29:59:101,412,2,0,1,138647,108256,142719,45,-988,227
05.10.2024 13:29:59:105,413,2,0,1,138650,108259,142719,44,-987,228
05.10.2024 13:29:59:109,414,2,0,1,138648,108268,142711,46,-987,229
05.10.2024 13:29:59:113,415,2,0,1,138649,108265,142708,48,-986,228
05.10.2024 13:29:59:117,416,2,0,1,138645,108269,142714,47,-984,230
05.10.2024 13:29:59:121,417,2,0,1,138645,108269,142716,46,-987,227
05.10.2024 13:29:59:125,418,2,0,1,138640,108281,142716,45,-985,227
05.10.2024 13:29:59:129,419,2,0,1,138642,108281,142716,45,-985,231
05.10.2024 13:29:59:132,420,2,0,1,138644,108288,142712,47,-982,232
05.10.2024 13:29:59:136,421,2,0,1,138646,108292,142714,47,-979,234
05.10.2024 13:29:59:140,422,2,0,1,138643,108303,142722,48,-982,228
05.10.2024 13:29:59:144,423,2,0,1,138639,108299,142715,45,-981,232
05.10.2024 13:29:59:148,424,2,0,1,138644,108317,142717,49,-982,229
05.10.2024 13:29:59:152,425,2,0,1,138640,108310,142721,47,-983,233
05.10.2024 13:29:59:156,426,2,0,1,138643,108333,142724,47,-982,233
05.10.2024 13:29:59:160,427,2,0,1,138636,108326,142722,48,-979,230
05.10.2024 13:29:59:164,428,2,0,1,138634,108342,142724,51,-983,228
05.10.2024 13:29:59:168,429,2,0,1,138636,108348,142725,46,-985,226
05.10.2024 13:29:59:171,430,2,0,1,138640,108345,142720,47,-981,223
05.10.2024 13:29:59:175,431,2,0,1,138638,108359,142721,48,-983,231
05.10.2024 13:29:59:179,432,2,0,1,138634,108358,142720,47,-982,228
05.10.2024 13:29:59:183,433,2,0,1,138637,108369,142728,49,-986,227
05.10.2024 13:29:59:187,434,2,0,1,138634,108374,142723,42,-988,228
05.10.2024 13:29:59:191,435,2,0,1,138628,108387,142729,47,-986,230
05.10.2024 13:29:59:195,436,2,0,1,138634,108385,142725,49,-985,228
05.10.2024 13:29:59:199,437,2,0,1,138630,108403,142730,45,-985,228
05.10.2024 13:29:59:203,438,2,0,1,138631,108402,142728,47,-988,229
05.10.2024 13:29:59:207,439,2,0,1,138629,108411,142728,43,-990,228
05.10.2024 13:29:59:210,440,2,0,1,138631,108412,142729,46,-987,227
05.10.2024 13:29:59:214,441,2,0,1,138629,108415,142730,44,-987,223
05.10.2024 13:29:59:218,442,2,0,1,138630,108421,142731,48,-986,229
05.10.2024 13:29:59:222,443,2,0,1,138621,108443,142737,47,-986,231
05.10.2024 13:29:59:226,444,2,0,1,138628,108449,142730,44,-985,228
05.10.2024 13:29:59:230,445,2,0,1,138625,108445,142735,48,-987,230
05.10.2024 13:29:59:234,446,2,0,1,138626,108455,142734,47,-987,227
05.10.2024 13:29:59:238,447,2,0,1,138620,108464,142736,47,-988,225
05.10.2024 13:29:59:242,448,2,0,1,138626,108478,142738,49,-984,226
05.10.2024 13:29:59:246,449,2,0,1,138627,108480,142739,50,-987,226
05.10.2024 13:29:59:249,450,2,0,1,138623,108486,142738,48,-984,228
05.10.2024 13:29:59:253,451,2,0,1,138624,108488,142744,48,-987,229
05.10.2024 13:29:59:257,452,2,0,1,138619,108495,142741,46,-983,231
05.10.2024 13:29:59:261,453,2,0,1,138620,108504,142746,51,-983,228
05.10.2024 13:29:59:265,454,2,0,1,138618,108506,142741,49,-983,229
05.10.2024 13:29:59:269,455,2,0,1,138617,108511,142740,49,-982,230
05.10.2024 13:29:59:273,456,2,0,1,138619,108522,142750,49,-983,235
05.10.2024 13:29:59:277,457,2,0,1,138615,108522,142741,49,-984,225
05.10.2024 13:29:59:281,458,2,0,1,138615,108530,142742,48,-985,234
05.10.2024 13:29:59:285,459,2,0,1,138614,108537,142739,45,-985,229
05.10.2024 13:29:59:288,460,2,0,1,138608,108543,142737,45,-984,232
05.10.2024 13:29:59:292,461,2,0,1,138607,108546,142736,46,-985,230
05.10.2024 13:29:59:296,462,2,0,1,138610,108544,142730,48,-984,231
05.10.2024 13:29:59:300,463,2,0,1,138602,108545,142730,48,-986,232
05.10.2024 13:29:59:304,464,2,0,1,138600,108543,142725,45,-982,236
05.10.2024 13:29:59:308,465,2,0,1,138600,108550,142717,46,-982,229
05.10.2024 13:29:59:312,466,2,0,1,138590,108534,142715,48,-982,233
05.10.2024 13:29:59:316,467,2,0,1,138584,108532,142712,50,-980,234
05.10.2024 13:29:59:320,468,2,0,1,138578,108523,142701,50,-983,230
05.10.2024 13:29:59:324,469,2,0,1,138575,108504,142694,47,-980,228
05.10.2024 13:29:59:327,470,2,0,1,138569,108482,142685,48,-986,230
05.10.2024 13:29:59:331,471,2,0,1,138564,108472,142675,42,-981,231
05.10.2024 13:29:59:335,472,2,0,1,138560,108461,142676,46,-980,236
05.10.2024 13:29:59:339,473,2,0,1,138556,108436,142671,53,-976,230
05.10.2024 13:29:59:343,474,2,0,1,138553,108418,142655,45,-977,224
05.10.2024 13:29:59:347,475,2,0,1,138548,108396,142657,46,-980,222
05.10.2024 13:29:59:351,476,2,0,1,138548,108376,142645,49,-979,224
05.10.2024 13:29:59:355,477,2,0,1,138550,108363,142645,48,-982,229
05.10.2024 13:29:59:359,478,2,0,1,138542,108343,142636,47,-980,226
05.10.2024 13:29:59:363,479,2,0,1,138550,108320,142632,46,-985,223
05.10.2024 13:29:59:366,480,2,0,1,138537,108301,142630,46,-980,226
05.10.2024 13:29:59:370,481,2,0,1,138532,108289,142630,48,-980,229
05.10.2024 13:29:59:374,482,2,0,1,138532,108272,142627,42,-980,228
05.10.2024 13:29:59:378,483,2,0,1,138527,108246,142626,50,-984,233
05.10.2024 13:29:59:382,484,2,0,1,138531,108228,142620,49,-981,227
05.10.2024 13:29:59:386,485,2,0,1,138527,108213,142614,48,-981,230
05.10.2024 13:29:59:390,486,2,0,1,138526,108199,142612,42,-988,224
05.10.2024 13:29:59:394,487,2,0,1,138526,108180,142599,48,-987,222
05.10.2024 13:29:59:398,488,2,0,1,138524,108171,142602,50,-987,228
05.10.2024 13:29:59:402,489,2,0,1,138518,108168,142598,49,-988,224
05.10.2024 13:29:59:405,490,2,0,1,138521,108139,142601,50,-983,229
05.10.2024 13:29:59:409,491,2,0,1,138518,108139,142596,48,-985,225
05.10.2024 13:29:59:413,492,2,0,1,138521,108138,142596,50,-992,226
05.10.2024 13:29:59:417,493,2,0,1,138515,108121,142598,50,-984,229
05.10.2024 13:29:59:421,494,2,0,1,138515,108125,142600,53,-982,230
05.10.2024 13:29:59:425,495,2,0,1,138517,108112,142597,50,-983,233
05.10.2024 13:29:59:429,496,2,0,1,138518,108110,142604,51,-986,233
05.10.2024 13:29:59:433,497,2,0,1,138517,108114,142594,52,-985,231
05.10.2024 13:29:59:437,498,2,0,1,138514,108109,142593,51,-984,230
05.10.2024 13:29:59:441,499,2,0,1,138515,108099,142590,53,-987,224
05.10.2024 13:29:59:444,500,2,0,1,138511,108105,142589,47,-982,227
05.10.2024 13:29:59:448,501,2,0,1,138510,108101,142599,51,-981,232
05.10.2024 13:29:59:452,502,2,0,1,138510,108095,142595,49,-979,229
05.10.2024 13:29:59:456,503,2,0,1,138506,108101,142600,48,-977,228
05.10.2024 13:29:59:460,504,2,0,1,138507,108096,142598,51,-983,233
05.10.2024 13:29:59:464,505,2,0,1,138502,108093,142594,51,-982,231
05.10.2024 13:29:59:468,506,2,0,1,138505,108097,142597,51,-980,229
05.10.2024 13:29:59:472,507,2,0,1,138504,108108,142597,53,-983,232
05.10.2024 13:29:59:476,508,2,0,1,138508,108099,142597,50,-983,230
05.10.2024 13:29:59:480,509,2,0,1,138501,108099,142592,50,-984,236
05.10.2024 13:29:59:483,510,2,0,1,138500,108103,142596,51,-980,230
05.10.2024 13:29:59:487,511,2,0,1,138504,108099,142601,50,-987,233
05.10.2024 13:29:59:491,512,2,0,1,138505,108104,142607,52,-981,232
05.10.2024 13:29:59:495,513,2,0,1,138511,108121,142608,53,-982,230
05.10.2024 13:29:59:499,514,2,0,1,138506,108121,142611,54,-980,234
05.10.2024 13:29:59:503,515,2,0,1,138510,108127,142616,48,-983,231
05.10.2024 13:29:59:507,516,2,0,1,138510,108133,142620,52,-982,233
05.10.2024 13:29:59:511,517,2,0,1,138513,108136,142617,53,-984,236
05.10.2024 13:29:59:515,518,2,0,1,138506,108144,142618,54,-985,223
05.10.2024 13:29:59:519,519,2,0,1,138515,108153,142618,52,-985,224
05.10.2024 13:29:59:522,520,2,0,1,138516,108149,142618,48,-985,233
05.10.2024 13:29:59:526,521,2,0,1,138510,108169,142623,52,-986,233
05.10.2024 13:29:59:530,522,2,0,1,138516,108174,142629,51,-984,230
05.10.2024 13:29:59:534,523,2,0,1,138513,108176,142638,50,-982,232
05.10.2024 13:29:59:538,524,2,0,1,138520,108188,142635,51,-982,234
05.10.2024 13:29:59:542,525,2,0,1,138519,108187,142639,50,-984,232
05.10.2024 13:29:59:546,526,2,0,1,138518,108193,142638,50,-982,235
05.10.2024 13:29:59:550,527,2,0,1,138522,108200,142642,50,-983,230
05.10.2024 13:29:59:554,528,2,0,1,138521,108202,142639,49,-982,230
05.10.2024 13:29:59:558,529,2,0,1,138526,108214,142639,53,-983,228
05.10.2024 13:29:59:561,530,2,0,1,138531,108209,142645,46,-981,226
05.10.2024 13:29:59:565,531,2,0,1,138527,108220,142650,50,-984,229
05.10.2024 13:29:59:569,532,2,0,1,138531,108221,142648,51,-984,231
05.10.2024 13:29:59:573,533,2,0,1,138526,108210,142649,56,-985,234
05.10.2024 13:29:59:577,534,2,0,1,138529,108214,142649,52,-982,236
05.10.2024 13:29:59:581,535,2,0,1,138521,108224,142649,47,-980,226
05.10.2024 13:29:59:585,536,2,0,1,138527,108226,142647,49,-978,236
05.10.2024 13:29:59:589,537,2,0,1,138528,108225,142650,47,-982,237
05.10.2024 13:29:59:593,538,2,0,1,138532,108221,142652,45,-984,230
05.10.2024 13:29:59:597,539,2,0,1,138529,108227,142648,47,-981,232
05.10.2024 13:29:59:600,540,2,0,1,138529,108216,142646,50,-984,232
05.10.2024 13:29:59:604,541,2,0,1,138532,108218,142653,44,-978,230
05.10.2024 13:29:59:608,542,2,0,1,138532,108217,142657,45,-983,231
05.10.2024 13:29:59:612,543,2,0,1,138528,108210,142652,44,-982,235
05.10.2024 13:29:59:616,544,2,0,1,138533,108211,142652,41,-982,228
05.10.2024 13:29:59:620,545,2,0,1,138535,108209,142655,48,-986,231
05.10.2024 13:29:59:624,546,2,0,1,138534,108202,142648,43,-983,231
05.10.2024 13:29:59:628,547,2,0,1,138529,108200,142655,46,-984,231
05.10.2024 13:29:59:632,548,2,0,1,138532,108196,142652,44,-980,234
05.10.2024 13:29:59:636,549,2,0,1,138533,108190,142652,48,-982,228
05.10.2024 13:29:59:639,550,2,0,1,138538,108185,142649,46,-985,231
05.10.2024 13:29:59:643,551,2,0,1,138534,108185,142657,45,-984,228
05.10.2024 13:29:59:647,552,2,0,1,138532,108183,142659,45,-984,225
05.10.2024 13:29:59:651,553,2,0,1,138532,108186,142656,48,-982,223
05.10.2024 13:29:59:655,554,2,0,1,138539,108183,142658,42,-984,226
05.10.2024 13:29:59:659,555,2,0,1,138538,108180,142653,47,-988,227
05.10.2024 13:29:59:663,556,2,0,1,138539,108181,142659,45,-984,226
05.10.2024 13:29:59:667,557,2,0,1,138541,108180,142660,46,-988,225
05.10.2024 13:29:59:671,558,2,0,1,138547,108187,142665,47,-985,221
05.10.2024 13:29:59:675,559,2,0,1,138538,108184,142665,47,-988,226
05.10.2024 13:29:59:678,560,2,0,1,138546,108180,142666,47,-985,229
05.10.2024 13:29:59:682,561,2,0,1,138549,108177,142666,47,-984,226
05.10.2024 13:29:59:686,562,2,0,1,138548,108190,142669,45,-986,228
05.10.2024 13:29:59:690,563,2,0,1,138554,108186,142668,46,-985,227
05.10.2024 13:29:59:694,564,2,0,1,138556,108194,142673,49,-986,228
05.10.2024 13:29:59:698,565,2,0,1,138557,108199,142677,55,-987,230
05.10.2024 13:29:59:702,566,2,0,1,138560,108198,142677,51,-987,229
05.10.2024 13:29:59:706,567,2,0,1,138561,108197,142679,53,-984,229
05.10.2024 13:29:59:710,568,2,0,1,138562,108207,142683,52,-985,221
05.10.2024 13:29:59:714,569,2,0,1,138568,108202,142685,53,-980,231
05.10.2024 13:29:59:717,570,2,0,1,138565,108215,142692,53,-987,229
05.10.2024 13:29:59:721,571,2,0,1,138565,108218,142689,52,-989,231
05.10.2024 13:29:59:725,572,2,0,1,138566,108217,142690,51,-992,227
05.10.2024 13:29:59:729,573,2,0,1,138569,108216,142692,52,-984,230
05.10.2024 13:29:59:733,574,2,0,1,138575,108224,142693,51,-991,229
05.10.2024 13:29:59:737,575,2,0,1,138575,108234,142694,51,-982,233
05.10.2024 13:29:59:741,576,2,0,1,138575,108241,142695,56,-987,232
05.10.2024 13:29:59:745,577,2,0,1,138574,108243,142698,53,-987,234
05.10.2024 13:29:59:749,578,2,0,1,138574,108243,142703,50,-982,231
05.10.2024 13:29:59:753,579,2,0,1,138573,108253,142707,48,-981,230
05.10.2024 13:29:59:756,580,2,0,1,138582,108254,142701,51,-979,232
05.10.2024 13:29:59:760,581,2,0,1,138581,108255,142710,50,-988,235
05.10.2024 13:29:59:764,582,2,0,1,138587,108272,142708,51,-981,230
05.10.2024 13:29:59:768,583,2,0,1,138584,108282,142709,47,-982,233
05.10.2024 13:29:59:772,584,2,0,1,138587,108273,142712,48,-982,237
05.10.2024 13:29:59:776,585,2,0,1,138587,108277,142714,47,-981,230
05.10.2024 13:29:59:780,586,2,0,1,138593,108289,142714,44,-985,233
05.10.2024 13:29:59:784,587,2,0,1,138588,108295,142719,44,-984,233
05.10.2024 13:29:59:788,588,2,0,1,138592,108302,142723,44,-982,231
05.10.2024 13:29:59:792,589,2,0,1,138596,108305,142725,47,-980,233
05.10.2024 13:29:59:795,590,2,0,1,138602,108309,142723,44,-984,234
05.10.2024 13:29:59:799,591,2,0,1,138598,108324,142732,45,-984,235
05.10.2024 13:29:59:803,592,2,0,1,138601,108334,142734,41,-983,230
05.10.2024 13:29:59:807,593,2,0,1,138600,108331,142737,49,-984,238
05.10.2024 13:29:59:811,594,2,0,1,138598,108337,142736,44,-981,232
05.10.2024 13:29:59:815,595,2,0,1,138601,108355,142739,45,-981,230
05.10.2024 13:29:59:819,596,2,0,1,138606,108350,142746,47,-983,235
05.10.2024 13:29:59:823,597,2,0,1,138609,108360,142746,46,-984,227
05.10.2024 13:29:59:827,598,2,0,1,138611,108371,142744,44,-987,236
05.10.2024 13:29:59:831,599,2,0,1,138610,108372,142746,43,-984,231
05.10.2024 13:29:59:834,600,2,0,1,138617,108381,142748,44,-983,232
05.10.2024 13:29:59:838,601,2,0,1,138614,108383,142754,43,-983,233
05.10.2024 13:29:59:842,602,2,0,1,138619,108391,142755,43,-985,227
05.10.2024 13:29:59:846,603,2,0,1,138622,108386,142753,46,-987,236
05.10.2024 13:29:59:850,604,2,0,1,138620,108407,142755,42,-986,229
05.10.2024 13:29:59:854,605,2,0,1,138625,108409,142759,43,-981,227
05.10.2024 13:29:59:858,606,2,0,1,138624,108420,142762,43,-984,226
05.10.2024 13:29:59:862,607,2,0,1,138633,108416,142764,40,-985,233
05.10.2024 13:29:59:866,608,2,0,1,138629,108431,142767,42,-986,228
05.10.2024 13:29:59:870,609,2,0,1,138634,108441,142774,48,-982,232
05.10.2024 13:29:59:873,610,2,0,1,138635,108439,142772,41,-986,229
05.10.2024 13:29:59:877,611,2,0,1,138641,108451,142777,46,-986,230
05.10.2024 13:29:59:881,612,2,0,1,138645,108451,142777,40,-983,229
05.10.2024 13:29:59:885,613,2,0,1,138644,108459,142783,42,-989,232
05.10.2024 13:29:59:889,614,2,0,1,138648,108464,142786,46,-984,233
05.10.2024 13:29:59:893,615,2,0,1,138658,108473,142788,44,-983,233
05.10.2024 13:29:59:897,616,2,0,1,138654,108475,142791,40,-985,229
05.10.2024 13:29:59:901,617,2,0,1,138651,108482,142800,41,-984,230
05.10.2024 13:29:59:905,618,2,0,1,138661,108488,142799,42,-989,225
05.10.2024 13:29:59:909,619,2,0,1,138659,108488,142805,44,-986,226
05.10.2024 13:29:59:912,620,2,0,1,138661,108505,142805,42,-986,227
05.10.2024 13:29:59:916,621,2,0,1,138666,108508,142808,41,-990,230
05.10.2024 13:29:59:920,622,2,0,1,138668,108508,142809,42,-989,227
05.10.2024 13:29:59:924,623,2,0,1,138674,108508,142808,43,-985,230
05.10.2024 13:29:59:928,624,2,0,1,138676,108514,142813,40,-988,226
05.10.2024 13:29:59:932,625,2,0,1,138677,108522,142819,46,-988,223
05.10.2024 13:29:59:936,626,2,0,1,138677,108526,142819,41,-984,225
05.10.2024 13:29:59:940,627,2,0,1,138687,108530,142820,40,-984,232
05.10.2024 13:29:59:944,628,2,0,1,138686,108549,142823,40,-983,231
05.10.2024 13:29:59:948,629,2,0,1,138695,108537,142829,42,-981,223
05.10.2024 13:29:59:951,630,2,0,1,138689,108546,142834,39,-984,228
05.10.2024 13:29:59:955,631,2,0,1,138697,108559,142836,49,-983,224
05.10.2024 13:29:59:959,632,2,0,1,138699,108551,142833,44,-987,225
05.10.2024 13:29:59:963,633,2,0,1,138702,108565,142839,44,-984,224
05.10.2024 13:29:59:967,634,2,0,1,138703,108575,142839,40,-984,228
05.10.2024 13:29:59:971,635,2,0,1,138701,108567,142841,44,-984,230
05.10.2024 13:29:59:975,636,2,0,1,138708,108579,142842,41,-985,226
05.10.2024 13:29:59:979,637,2,0,1,138709,108590,142845,42,-982,226
05.10.2024 13:29:59:983,638,2,0,1,138710,108598,142849,40,-986,225
05.10.2024 13:29:59:987,639,2,0,1,138712,108593,142855,43,-989,232
05.10.2024 13:29:59:990,640,2,0,1,138715,108609,142854,42,-989,224
05.10.2024 13:29:59:994,641,2,0,1,138715,108609,142855,40,-985,225
05.10.2024 13:29:59:998,642,2,0,1,138722,108608,142858,40,-984,227
05.10.2024 13:30:00:2,643,2,0,1,138729,108624,142868,38,-988,225
05.10.2024 13:30:00:6,644,2,0,1,138726,108636,142860,40,-988,232
05.10.2024 13:30:00:10,645,2,0,1,138730,108637,142866,44,-988,229
05.10.2024 13:30:00:14,646,2,0,1,138729,108636,142871,41,-983,227
05.10.2024 13:30:00:18,647,2,0,1,138737,108643,142873,39,-986,227
05.10.2024 13:30:00:22,648,2,0,1,138735,108662,142870,42,-987,228
05.10.2024 13:30:00:26,649,2,0,1,138744,108671,142870,42,-989,224
05.10.2024 13:30:00:29,650,2,0,1,138737,108670,142881,42,-988,230
05.10.2024 13:30:00:33,651,2,0,1,138738,108674,142890,45,-985,227
05.10.2024 13:30:00:37,652,2,0,1,138741,108677,142885,42,-989,228
05.10.2024 13:30:00:41,653,2,0,1,138746,108686,142889,44,-984,229
05.10.2024 13:30:00:45,654,2,0,1,138744,108694,142885,38,-983,225
05.10.2024 13:30:00:49,655,2,0,1,138749,108698,142893,40,-983,231
05.10.2024 13:30:00:53,656,2,0,1,138753,108704,142892,43,-984,228
05.10.2024 13:30:00:57,657,2,0,1,138756,108720,142892,40,-988,228
05.10.2024 13:30:00:61,658,2,0,1,138761,108719,142896,46,-982,234
05.10.2024 13:30:00:65,659,2,0,1,138760,108729,142896,45,-988,230
05.10.2024 13:30:00:68,660,2,0,1,138764,108727,142905,44,-986,230
05.10.2024 13:30:00:72,661,2,0,1,138763,108741,142903,42,-987,227
05.10.2024 13:30:00:76,662,2,0,1,138771,108740,142909,47,-983,230
05.10.2024 13:30:00:80,663,2,0,1,138770,108757,142909,47,-981,230
05.10.2024 13:30:00:84,664,2,0,1,138774,108750,142906,41,-981,227
05.10.2024 13:30:00:88,665,2,0,1,138769,108750,142912,44,-989,227
05.10.2024 13:30:00:92,666,2,0,1,138773,108758,142910,41,-989,227
05.10.2024 13:30:00:96,667,2,0,1,138771,108751,142904,41,-983,223
05.10.2024 13:30:00:100,668,2,0,1,138770,108744,142898,44,-986,228
05.10.2024 13:30:00:104,669,2,0,1,138766,108738,142896,41,-985,228
05.10.2024 13:30:00:107,670,2,0,1,138762,108735,142888,44,-982,227
05.10.2024 13:30:00:111,671,2,0,1,138761,108730,142883,43,-985,231
05.10.2024 13:30:00:115,672,2,0,1,138760,108713,142878,48,-988,229
05.10.2024 13:30:00:119,673,2,0,1,138761,108701,142871,47,-987,227
05.10.2024 13:30:00:123,674,2,0,1,138752,108691,142864,40,-983,226
05.10.2024 13:30:00:127,675,2,0,1,138755,108665,142861,44,-988,229
05.10.2024 13:30:00:131,676,2,0,1,138745,108644,142857,41,-985,227
05.10.2024 13:30:00:135,677,2,0,1,138751,108623,142846,40,-983,229
05.10.2024 13:30:00:139,678,2,0,1,138749,108606,142846,40,-987,229
05.10.2024 13:30:00:143,679,2,0,1,138744,108585,142843,41,-984,227
05.10.2024 13:30:00:146,680,2,0,1,138747,108560,142831,38,-980,232
05.10.2024 13:30:00:150,681,2,0,1,138747,108538,142830,40,-980,228
05.10.2024 13:30:00:154,682,2,0,1,138747,108516,142825,41,-982,224
05.10.2024 13:30:00:158,683,2,0,1,138738,108498,142826,37,-986,227
05.10.2024 13:30:00:162,684,2,0,1,138740,108480,142816,36,-985,230
05.10.2024 13:30:00:166,685,2,0,1,138734,108449,142811,38,-985,229
05.10.2024 13:30:00:170,686,2,0,1,138739,108429,142803,40,-984,227
05.10.2024 13:30:00:174,687,2,0,1,138734,108408,142813,39,-981,227
05.10.2024 13:30:00:178,688,2,0,1,138734,108382,142810,37,-982,229
05.10.2024 13:30:00:182,689,2,0,1,138737,108361,142804,44,-981,228
05.10.2024 13:30:00:185,690,2,0,1,138733,108345,142803,37,-981,229
05.10.2024 13:30:00:189,691,2,0,1,138736,108334,142804,39,-984,227
05.10.2024 13:30:00:193,692,2,0,1,138737,108310,142800,40,-988,231
05.10.2024 13:30:00:197,693,2,0,1,138737,108296,142801,41,-982,222
05.10.2024 13:30:00:201,694,2,0,1,138731,108280,142799,40,-986,228
05.10.2024 13:30:00:205,695,2,0,1,138735,108275,142798,36,-985,230
05.10.2024 13:30:00:209,696,2,0,1,138734,108263,142804,40,-988,225
05.10.2024 13:30:00:213,697,2,0,1,138738,108250,142805,40,-987,231
05.10.2024 13:30:00:217,698,2,0,1,138740,108234,142808,38,-987,226
05.10.2024 13:30:00:221,699,2,0,1,138746,108224,142804,40,-985,226
05.10.2024 13:30:00:224,700,2,0,1,138750,108217,142805,38,-989,227
05.10.2024 13:30:00:228,701,2,0,1,138748,108216,142811,40,-985,226
05.10.2024 13:30:00:232,702,2,0,1,138750,108210,142813,36,-990,226
05.10.2024 13:30:00:236,703,2,0,1,138745,108200,142810,36,-991,223
05.10.2024 13:30:00:240,704,2,0,1,138756,108200,142813,37,-983,223
05.10.2024 13:30:00:244,705,2,0,1,138755,108187,142817,38,-985,223
05.10.2024 13:30:00:248,706,2,0,1,138752,108195,142817,33,-983,229
05.10.2024 13:30:00:252,707,2,0,1,138758,108181,142815,39,-984,226
05.10.2024 13:30:00:256,708,2,0,1,138756,108179,142816,40,-984,225
05.10.2024 13:30:00:260,709,2,0,1,138755,108193,142816,38,-985,227
05.10.2024 13:30:00:263,710,2,0,1,138761,108177,142823,38,-985,229
05.10.2024 13:30:00:267,711,2,0,1,138763,108180,142826,40,-988,227
05.10.2024 13:30:00:271,712,2,0,1,138767,108175,142821,36,-986,225
05.10.2024 13:30:00:275,713,2,0,1,138768,108173,142829,35,-987,223
05.10.2024 13:30:00:279,714,2,0,1,138771,108179,142827,38,-984,224
05.10.2024 13:30:00:283,715,2,0,1,138767,108171,142830,38,-989,226
05.10.2024 13:30:00:287,716,2,0,1,138768,108183,142832,38,-979,221
05.10.2024 13:30:00:291,717,2,0,1,138769,108179,142831,36,-983,226
05.10.2024 13:30:00:295,718,2,0,1,138780,108185,142839,37,-988,225
05.10.2024 13:30:00:299,719,2,0,1,138777,108192,142837,36,-985,225
05.10.2024 13:30:00:302,720,2,0,1,138777,108194,142840,39,-985,227
05.10.2024 13:30:00:306,721,2,0,1,138777,108183,142846,38,-983,224
05.10.2024 13:30:00:310,722,2,0,1,138784,108197,142845,40,-985,226
05.10.2024 13:30:00:314,723,2,0,1,138786,108196,142846,40,-981,228
05.10.2024 13:30:00:318,724,2,0,1,138780,108197,142848,37,-989,231
05.10.2024 13:30:00:322,725,2,0,1,138789,108205,142851,34,-985,222
05.10.2024 13:30:00:326,726,2,0,1,138790,108206,142851,38,-983,230
05.10.2024 13:30:00:330,727,2,0,1,138791,108212,142851,41,-984,231
05.10.2024 13:30:00:334,728,2,0,1,138795,108222,142856,36,-985,228
05.10.2024 13:30:00:338,729,2,0,1,138801,108220,142861,39,-984,227
05.10.2024 13:30:00:341,730,2,0,1,138800,108225,142865,37,-981,230
05.10.2024 13:30:00:345,731,2,0,1,138805,108234,142866,40,-986,227
05.10.2024 13:30:00:349,732,2,0,1,138804,108241,142866,40,-984,230
05.10.2024 13:30:00:353,733,2,0,1,138801,108244,142873,39,-987,227
05.10.2024 13:30:00:357,734,2,0,1,138804,108243,142873,43,-986,226
05.10.2024 13:30:00:361,735,2,0,1,138809,108248,142873,41,-986,224
05.10.2024 13:30:00:365,736,2,0,1,138809,108251,142875,41,-991,227
05.10.2024 13:30:00:369,737,2,0,1,138808,108247,142873,40,-988,224
05.10.2024 13:30:00:373,738,2,0,1,138812,108259,142872,40,-988,225
05.10.2024 13:30:00:377,739,2,0,1,138815,108260,142875,38,-985,225
05.10.2024 13:30:00:380,740,2,0,1,138811,108254,142874,36,-984,229
05.10.2024 13:30:00:384,741,2,0,1,138817,108265,142873,41,-986,228
05.10.2024 13:30:00:388,742,2,0,1,138817,108268,142880,36,-983,226
05.10.2024 13:30:00:392,743,2,0,1,138814,108272,142874,38,-988,229
05.10.2024 13:30:00:396,744,2,0,1,138817,108266,142883,40,-986,224
05.10.2024 13:30:00:400,745,2,0,1,138821,108263,142879,40,-988,227
05.10.2024 13:30:00:404,746,2,0,1,138819,108262,142886,36,-987,226
05.10.2024 13:30:00:408,747,2,0,1,138819,108261,142881,37,-985,228
05.10.2024 13:30:00:412,748,2,0,1,138818,108264,142878,38,-988,228
05.10.2024 13:30:00:416,749,2,0,1,138826,108248,142880,40,-984,228
05.10.2024 13:30:00:419,750,2,0,1,138821,108252,142884,40,-987,227
05.10.2024 13:30:00:423,751,2,0,1,138824,108250,142880,39,-985,228
05.10.2024 13:30:00:427,752,2,0,1,138823,108245,142881,37,-986,224
05.10.2024 13:30:00:431,753,2,0,1,138822,108255,142880,35,-984,229
05.10.2024 13:30:00:435,754,2,0,1,138825,108255,142878,33,-986,228
05.10.2024 13:30:00:439,755,2,0,1,138822,108246,142876,34,-988,228
05.10.2024 13:30:00:443,756,2,0,1,138823,108241,142878,40,-985,226
05.10.2024 13:30:00:447,757,2,0,1,138823,108236,142885,39,-981,227
05.10.2024 13:30:00:451,758,2,0,1,138824,108240,142881,34,-982,225
05.10.2024 13:30:00:455,759,2,0,1,138824,108236,142874,39,-984,228
05.10.2024 13:30:00:458,760,2,0,1,138822,108227,142875,38,-986,227
05.10.2024 13:30:00:462,761,2,0,1,138827,108223,142885,41,-983,232
05.10.2024 13:30:00:466,762,2,0,1,138824,108235,142880,37,-980,229
05.10.2024 13:30:00:470,763,2,0,1,138826,108231,142876,37,-982,224
05.10.2024 13:30:00:474,764,2,0,1,138830,108233,142885,38,-982,229
05.10.2024 13:30:00:478,765,2,0,1,138830,108224,142885,35,-986,224
05.10.2024 13:30:00:482,766,2,0,1,138833,108231,142886,40,-983,221
05.10.2024 13:30:00:486,767,2,0,1,138841,108226,142889,36,-988,229
05.10.2024 13:30:00:490,768,2,0,1,138834,108234,142883,40,-983,229
05.10.2024 13:30:00:494,769,2,0,1,138838,108236,142887,37,-988,227
05.10.2024 13:30:00:497,770,2,0,1,138839,108230,142897,36,-987,222
05.10.2024 13:30:00:501,771,2,0,1,138839,108238,142893,39,-989,225
05.10.2024 13:30:00:505,772,2,0,1,138839,108228,142898,38,-988,223
05.10.2024 13:30:00:509,773,2,0,1,138839,108246,142896,37,-987,227
05.10.2024 13:30:00:513,774,2,0,1,138844,108246,142903,34,-989,224
05.10.2024 13:30:00:517,775,2,0,1,138844,108247,142901,37,-990,225
05.10.2024 13:30:00:521,776,2,0,1,138847,108247,142905,37,-992,222
05.10.2024 13:30:00:525,777,2,0,1,138848,108257,142914,39,-990,223
05.10.2024 13:30:00:529,778,2,0,1,138849,108261,142912,37,-989,221
05.10.2024 13:30:00:533,779,2,0,1,138856,108270,142916,36,-988,227
05.10.2024 13:30:00:536,780,2,0,1,138854,108274,142909,39,-985,223
05.10.2024 13:30:00:540,781,2,0,1,138853,108269,142913,34,-992,225
05.10.2024 13:30:00:544,782,2,0,1,138855,108277,142918,38,-988,225
05.10.2024 13:30:00:548,783,2,0,1,138858,108290,142910,37,-989,226
05.10.2024 13:30:00:552,784,2,0,1,138859,108282,142916,36,-989,225
05.10.2024 13:30:00:556,785,2,0,1,138860,108294,142920,36,-989,225
05.10.2024 13:30:00:560,786,2,0,1,138862,108304,142921,34,-991,226
05.10.2024 13:30:00:564,787,2,0,1,138865,108305,142925,36,-991,228
05.10.2024 13:30:00:568,788,2,0,1,138864,108315,142928,36,-989,224
05.10.2024 13:30:00:572,789,2,0,1,138870,108319,142934,32,-990,219
05.10.2024 13:30:00:575,790,2,0,1,138868,108332,142933,37,-989,223
05.10.2024 13:30:00:579,791,2,0,1,138866,108344,142935,33,-986,227
05.10.2024 13:30:00:583,792,2,0,1,138874,108339,142935,36,-987,222
05.10.2024 13:30:00:587,793,2,0,1,138870,108336,142939,39,-985,224
05.10.2024 13:30:00:591,794,2,0,1,138876,108342,142940,36,-989,222
05.10.2024 13:30:00:595,795,2,0,1,138872,108356,142943,30,-986,221
05.10.2024 13:30:00:599,796,2,0,1,138877,108362,142946,36,-986,224
05.10.2024 13:30:00:603,797,2,0,1,138882,108375,142941,35,-985,228
05.10.2024 13:30:00:607,798,2,0,1,138882,108376,142949,36,-983,228
05.10.2024 13:30:00:611,799,2,0,1,138883,108380,142952,37,-988,227
05.10.2024 13:30:00:614,800,2,0,1,138890,108392,142958,30,-981,224
05.10.2024 13:30:00:618,801,2,0,1,138889,108397,142961,34,-984,224
05.10.2024 13:30:00:622,802,2,0,1,138890,108396,142962,29,-986,223
05.10.2024 13:30:00:626,803,2,0,1,138892,108414,142962,31,-986,226
05.10.2024 13:30:00:630,804,2,0,1,138892,108426,142964,37,-989,223
05.10.2024 13:30:00:634,805,2,0,1,138897,108427,142973,33,-985,224
05.10.2024 13:30:00:638,806,2,0,1,138894,108449,142974,34,-987,226
05.10.2024 13:30:00:642,807,2,0,1,138903,108446,142974,36,-985,222
05.10.2024 13:30:00:646,808,2,0,1,138899,108451,142979,40,-985,225
05.10.2024 13:30:00:650,809,2,0,1,138902,108454,142981,34,-988,228
05.10.2024 13:30:00:653,810,2,0,1,138899,108469,142981,36,-989,228
05.10.2024 13:30:00:657,811,2,0,1,138904,108479,142986,33,-987,221
05.10.2024 13:30:00:661,812,2,0,1,138905,108475,142983,38,-984,218
05.10.2024 13:30:00:665,813,2,0,1,138906,108483,142990,30,-988,229
05.10.2024 13:30:00:669,814,2,0,1,138908,108490,142989,35,-986,221
05.10.2024 13:30:00:673,815,2,0,1,138911,108499,142995,31,-986,227
05.10.2024 13:30:00:677,816,2,0,1,138914,108516,142991,35,-986,225
05.10.2024 13:30:00:681,817,2,0,1,138914,108519,143001,34,-984,224
05.10.2024 13:30:00:685,818,2,0,1,138916,108530,142995,38,-985,225
05.10.2024 13:30:00:689,819,2,0,1,138921,108532,143005,34,-985,226
05.10.2024 13:30:00:692,820,2,0,1,138915,108539,143002,35,-987,222
05.10.2024 13:30:00:696,821,2,0,1,138921,108543,143008,36,-991,220
05.10.2024 13:30:00:700,822,2,0,1,138926,108554,143012,40,-992,223
05.10.2024 13:30:00:704,823,2,0,1,138927,108553,143008,37,-990,224
05.10.2024 13:30:00:708,824,2,0,1,138925,108555,143013,35,-986,224
05.10.2024 13:30:00:712,825,2,0,1,138932,108565,143028,33,-988,220
05.10.2024 13:30:00:716,826,2,0,1,138927,108575,143019,38,-985,220
05.10.2024 13:30:00:720,827,2,0,1,138934,108583,143023,35,-985,229
05.10.2024 13:30:00:724,828,2,0,1,138939,108585,143030,32,-987,219
05.10.2024 13:30:00:728,829,2,0,1,138939,108585,143023,32,-990,226
05.10.2024 13:30:00:731,830,2,0,1,138939,108597,143022,33,-986,222
05.10.2024 13:30:00:735,831,2,0,1,138938,108608,143027,32,-984,227
05.10.2024 13:30:00:739,832,2,0,1,138945,108617,143030,35,-991,221
05.10.2024 13:30:00:743,833,2,0,1,138951,108618,143035,34,-987,224
05.10.2024 13:30:00:747,834,2,0,1,138948,108624,143033,34,-983,223
05.10.2024 13:30:00:751,835,2,0,1,138948,108626,143037,31,-991,223
05.10.2024 13:30:00:755,836,2,0,1,138951,108634,143039,34,-986,220
05.10.2024 13:30:00:759,837,2,0,1,138951,108645,143042,36,-986,221
05.10.2024 13:30:00:763,838,2,0,1,138952,108651,143039,34,-989,217
05.10.2024 13:30:00:767,839,2,0,1,138953,108659,143043,37,-990,222
05.10.2024 13:30:00:770,840,2,0,1,138955,108661,143040,31,-989,220
05.10.2024 13:30:00:774,841,2,0,1,138956,108669,143045,36,-989,222
05.10.2024 13:30:00:778,842,2,0,1,138958,108668,143046,29,-986,225
05.10.2024 13:30:00:782,843,2,0,1,138962,108688,143049,33,-985,226
05.10.2024 13:30:00:786,844,2,0,1,138961,108679,143051,35,-987,215
05.10.2024 13:30:00:790,845,2,0,1,138961,108695,143051,37,-987,224
05.10.2024 13:30:00:794,846,2,0,1,138960,108696,143055,36,-986,220
05.10.2024 13:30:00:798,847,2,0,1,138962,108704,143056,28,-983,224
05.10.2024 13:30:00:802,848,2,0,1,138964,108712,143056,33,-988,222
05.10.2024 13:30:00:806,849,2,0,1,138971,108728,143066,31,-988,223
05.10.2024 13:30:00:809,850,2,0,1,138972,108728,143063,40,-986,220
05.10.2024 13:30:00:813,851,2,0,1,138968,108740,143065,33,-987,221
05.10.2024 13:30:00:817,852,2,0,1,138977,108741,143067,31,-990,220
05.10.2024 13:30:00:821,853,2,0,1,138980,108748,143073,31,-981,217
05.10.2024 13:30:00:825,854,2,0,1,138977,108760,143077,34,-988,225
05.10.2024 13:30:00:829,855,2,0,1,138985,108764,143076,34,-987,220
05.10.2024 13:30:00:833,856,2,0,1,138978,108770,143085,37,-979,220
05.10.2024 13:30:00:837,857,2,0,1,138985,108778,143088,33,-989,225
05.10.2024 13:30:00:841,858,2,0,1,138985,108782,143089,34,-983,227
05.10.2024 13:30:00:845,859,2,0,1,138989,108795,143081,33,-979,222
05.10.2024 13:30:00:848,860,2,0,1,138992,108802,143092,36,-987,226
05.10.2024 13:30:00:852,861,2,0,1,138998,108814,143088,33,-985,222
05.10.2024 13:30:00:856,862,2,0,1,139004,108816,143095,34,-990,222
05.10.2024 13:30:00:860,863,2,0,1,138993,108824,143104,36,-991,223
05.10.2024 13:30:00:864,864,2,0,1,138997,108827,143107,32,-989,222
05.10.2024 13:30:00:868,865,2,0,1,138993,108842,143100,33,-992,226
05.10.2024 13:30:00:872,866,2,0,1,138996,108834,143107,32,-990,221
05.10.2024 13:30:00:876,867,2,0,1,139002,108851,143106,33,-988,227
05.10.2024 13:30:00:880,868,2,0,1,139001,108855,143109,31,-988,225
05.10.2024 13:30:00:884,869,2,0,1,139005,108867,143114,35,-990,224
05.10.2024 13:30:00:887,870,2,0,1,139003,108870,143112,37,-992,225
05.10.2024 13:30:00:891,871,2,0,1,139009,108884,143112,32,-988,227
05.10.2024 13:30:00:895,872,2,0,1,139009,108876,143115,35,-990,225
05.10.2024 13:30:00:899,873,2,0,1,139007,108894,143117,35,-985,229
05.10.2024 13:30:00:903,874,2,0,1,139015,108899,143119,32,-986,227
05.10.2024 13:30:00:907,875,2,0,1,139013,108918,143122,36,-983,223
05.10.2024 13:30:00:911,876,2,0,1,139013,108916,143124,32,-986,233
05.10.2024 13:30:00:915,877,2,0,1,139016,108922,143126,38,-988,223
05.10.2024 13:30:00:919,878,2,0,1,139010,108914,143121,32,-985,228
05.10.2024 13:30:00:923,879,2,0,1,139014,108922,143112,35,-984,223
05.10.2024 13:30:00:926,880,2,0,1,139010,108926,143119,36,-988,220
05.10.2024 13:30:00:930,881,2,0,1,139009,108916,143109,37,-986,222
05.10.2024 13:30:00:934,882,2,0,1,139004,108923,143109,34,-986,222
05.10.2024 13:30:00:938,883,2,0,1,139004,108912,143100,35,-986,216
05.10.2024 13:30:00:942,884,2,0,1,139000,108901,143098,34,-984,223
05.10.2024 13:30:00:946,885,2,0,1,139000,108895,143087,36,-985,221
05.10.2024 13:30:00:950,886,2,0,1,138996,108875,143083,34,-988,219
05.10.2024 13:30:00:954,887,2,0,1,138994,108864,143073,33,-988,220
05.10.2024 13:30:00:958,888,2,0,1,138987,108848,143066,31,-990,217
05.10.2024 13:30:00:962,889,2,0,1,138984,108817,143058,28,-985,225
05.10.2024 13:30:00:965,890,2,0,1,138983,108809,143051,32,-986,219
05.10.2024 13:30:00:969,891,2,0,1,138975,108783,143046,33,-988,221
05.10.2024 13:30:00:973,892,2,0,1,138983,108760,143038,32,-986,219
05.10.2024 13:30:00:977,893,2,0,1,138975,108726,143035,32,-990,221
05.10.2024 13:30:00:981,894,2,0,1,138974,108703,143038,32,-986,223
05.10.2024 13:30:00:985,895,2,0,1,138976,108676,143031,32,-989,227
05.10.2024 13:30:00:989,896,2,0,1,138968,108649,143021,29,-988,217
05.10.2024 13:30:00:993,897,2,0,1,138967,108635,143015,35,-987,221
05.10.2024 13:30:00:997,898,2,0,1,138970,108608,143011,29,-988,219
05.10.2024 13:30:01:1,899,2,0,1,138969,108587,143008,30,-987,219
05.10.2024 13:30:01:4,900,2,0,1,138964,108559,143000,36,-992,224
05.10.2024 13:30:01:8,901,2,0,1,138963,108540,142996,34,-988,219
05.10.2024 13:30:01:12,902,2,0,1,138968,108518,142994,39,-989,222
05.10.2024 13:30:01:16,903,2,0,1,138962,108495,142991,29,-990,224
05.10.2024 13:30:01:20,904,2,0,1,138962,108478,142989,34,-990,215
05.10.2024 13:30:01:24,905,2,0,1,138956,108463,142985,34,-986,223
05.10.2024 13:30:01:28,906,2,0,1,138954,108446,142986,34,-989,218
05.10.2024 13:30:01:32,907,2,0,1,138960,108432,142981,37,-991,222
05.10.2024 13:30:01:36,908,2,0,1,138950,108420,142983,36,-990,215
05.10.2024 13:30:01:40,909,2,0,1,138955,108404,142979,32,-989,224
05.10.2024 13:30:01:43,910,2,0,1,138954,108390,142984,34,-986,225
05.10.2024 13:30:01:47,911,2,0,1,138956,108375,142983,32,-987,218
05.10.2024 13:30:01:51,912,2,0,1,138955,108369,142982,31,-987,227
05.10.2024 13:30:01:55,913,2,0,1,138962,108361,142986,32,-989,224
05.10.2024 13:30:01:59,914,2,0,1,138961,108348,142980,33,-985,223
05.10.2024 13:30:01:63,915,2,0,1,138956,108351,142983,35,-987,223
05.10.2024 13:30:01:67,916,2,0,1,138962,108344,142982,32,-989,222
05.10.2024 13:30:01:71,917,2,0,1,138961,108329,142991,32,-986,218
05.10.2024 13:30:01:75,918,2,0,1,138955,108333,142986,36,-985,221
05.10.2024 13:30:01:79,919,2,0,1,138959,108323,142985,34,-988,221
05.10.2024 13:30:01:82,920,2,0,1,138964,108320,142979,33,-990,227
05.10.2024 13:30:01:86,921,2,0,1,138960,108322,142979,38,-988,224
05.10.2024 13:30:01:90,922,2,0,1,138967,108315,142985,34,-990,226
05.10.2024 13:30:01:94,923,2,0,1,138959,108312,142985,31,-990,225
05.10.2024 13:30:01:98,924,2,0,1,138960,108300,142984,32,-987,221
05.10.2024 13:30:01:102,925,2,0,1,138965,108304,142989,29,-990,220
05.10.2024 13:30:01:106,926,2,0,1,138964,108296,142988,30,-983,222
05.10.2024 13:30:01:110,927,2,0,1,138963,108304,142987,31,-987,222
05.10.2024 13:30:01:114,928,2,0,1,138960,108298,142988,35,-987,224
05.10.2024 13:30:01:118,929,2,0,1,138966,108301,142993,32,-987,222
05.10.2024 13:30:01:121,930,2,0,1,138966,108295,142993,29,-985,219
05.10.2024 13:30:01:125,931,2,0,1,138967,108301,142990,34,-983,221
05.10.2024 13:30:01:129,932,2,0,1,138965,108295,142988,33,-987,219
05.10.2024 13:30:01:133,933,2,0,1,138968,108306,142993,34,-984,220
05.10.2024 13:30:01:137,934,2,0,1,138967,108299,142994,28,-985,220
05.10.2024 13:30:01:141,935,2,0,1,138967,108305,142993,33,-984,219
05.10.2024 13:30:01:145,936,2,0,1,138969,108285,142993,33,-982,221
05.10.2024 13:30:01:149,937,2,0,1,138966,108297,142991,32,-987,226
05.10.2024 13:30:01:153,938,2,0,1,138968,108283,142999,33,-979,225
05.10.2024 13:30:01:157,939,2,0,1,138967,108301,142995,30,-988,223
05.10.2024 13:30:01:160,940,2,0,1,138967,108294,143002,34,-986,222
05.10.2024 13:30:01:164,941,2,0,1,138974,108297,143001,32,-982,225
05.10.2024 13:30:01:168,942,2,0,1,138971,108302,143011,32,-986,224
05.10.2024 13:30:01:172,943,2,0,1,138976,108300,143014,33,-988,226
05.10.2024 13:30:01:176,944,2,0,1,138978,108312,143011,35,-987,226
05.10.2024 13:30:01:180,945,2,0,1,138978,108313,143013,31,-986,224
05.10.2024 13:30:01:184,946,2,0,1,138977,108309,143014,31,-987,224
05.10.2024 13:30:01:188,947,2,0,1,138976,108318,143015,33,-985,224
05.10.2024 13:30:01:192,948,2,0,1,138978,108324,143018,34,-988,225
05.10.2024 13:30:01:196,949,2,0,1,138983,108321,143016,34,-984,226
05.10.2024 13:30:01:199,950,2,0,1,138982,108324,143023,36,-988,226
05.10.2024 13:30:01:203,951,2,0,1,138987,108322,143013,29,-984,226
05.10.2024 13:30:01:207,952,2,0,1,138984,108334,143013,34,-989,223
05.10.2024 13:30:01:211,953,2,0,1,138985,108332,143015,32,-989,223
05.10.2024 13:30:01:215,954,2,0,1,138986,108331,143008,34,-988,223
05.10.2024 13:30:01:219,955,2,0,1,138986,108331,143013,33,-991,218
05.10.2024 13:30:01:223,956,2,0,1,138982,108336,143016,38,-990,220
05.10.2024 13:30:01:227,957,2,0,1,138991,108337,143018,28,-990,222
05.10.2024 13:30:01:231,958,2,0,1,138985,108328,143017,35,-989,222
05.10.2024 13:30:01:235,959,2,0,1,138984,108334,143017,35,-992,223
05.10.2024 13:30:01:238,960,2,0,1,138983,108333,143012,33,-985,220
05.10.2024 13:30:01:242,961,2,0,1,138986,108330,143012,30,-989,223
05.10.2024 13:30:01:246,962,2,0,1,138985,108330,143021,35,-983,220
05.10.2024 13:30:01:250,963,2,0,1,138986,108328,143022,31,-987,223
05.10.2024 13:30:01:254,964,2,0,1,138987,108323,143024,35,-986,221
05.10.2024 13:30:01:258,965,2,0,1,138983,108322,143017,35,-985,229
05.10.2024 13:30:01:262,966,2,0,1,138983,108316,143022,35,-985,229
05.10.2024 13:30:01:266,967,2,0,1,138980,108320,143019,32,-986,222
05.10.2024 13:30:01:270,968,2,0,1,138978,108329,143016,37,-989,223
05.10.2024 13:30:01:274,969,2,0,1,138984,108314,143020,31,-982,222
05.10.2024 13:30:01:277,970,2,0,1,138979,108319,143011,30,-986,221
05.10.2024 13:30:01:281,971,2,0,1,138977,108320,143018,35,-984,223
05.10.2024 13:30:01:285,972,2,0,1,138981,108313,143012,30,-985,227
05.10.2024 13:30:01:289,973,2,0,1,138979,108326,143009,33,-986,222
05.10.2024 13:30:01:293,974,2,0,1,138979,108309,143016,33,-985,223
05.10.2024 13:30:01:297,975,2,0,1,138978,108307,143009,28,-985,222
05.10.2024 13:30:01:301,976,2,0,1,138977,108307,143014,31,-989,222
05.10.2024 13:30:01:305,977,2,0,1,138977,108307,143011,34,-987,228
05.10.2024 13:30:01:309,978,2,0,1,138982,108311,143008,32,-985,221
05.10.2024 13:30:01:313,979,2,0,1,138980,108303,143010,34,-992,221
05.10.2024 13:30:01:316,980,2,0,1,138982,108303,143014,37,-985,225
05.10.2024 13:30:01:320,981,2,0,1,138981,108304,143008,30,-986,223
05.10.2024 13:30:01:324,982,2,0,1,138985,108300,143010,33,-989,224
05.10.2024 13:30:01:328,983,2,0,1,138976,108304,143016,33,-989,224
05.10.2024 13:30:01:332,984,2,0,1,138981,108293,143019,31,-990,224
05.10.2024 13:30:01:336,985,2,0,1,138983,108301,143017,33,-983,220
05.10.2024 13:30:01:340,986,2,0,1,138985,108308,143020,34,-983,220
05.10.2024 13:30:01:344,987,2,0,1,138984,108303,143020,33,-985,223
05.10.2024 13:30:01:348,988,2,0,1,138986,108296,143017,34,-987,224
05.10.2024 13:30:01:352,989,2,0,1,138981,108306,143018,36,-992,226
05.10.2024 13:30:01:355,990,2,0,1,138980,108309,143019,37,-987,223
05.10.2024 13:30:01:359,991,2,0,1,138982,108306,143027,37,-987,223
05.10.2024 13:30:01:363,992,2,0,1,138982,108312,143025,33,-985,219
05.10.2024 13:30:01:367,993,2,0,1,138984,108313,143025,32,-992,221
05.10.2024 13:30:01:371,994,2,0,1,138985,108315,143029,35,-990,217
05.10.2024 13:30:01:375,995,2,0,1,138986,108313,143028,31,-990,225
05.10.2024 13:30:01:379,996,2,0,1,138988,108314,143025,31,-987,220
05.10.2024 13:30:01:383,997,2,0,1,138991,108321,143027,35,-987,220
05.10.2024 13:30:01:387,998,2,0,1,138985,108333,143031,34,-985,228
05.10.2024 13:30:01:391,999,2,0,1,138988,108332,143031,29,-989,221
05.10.2024 13:30:01:394,1000,2,0,1,138979,108336,143034,34,-990,218
05.10.2024 13:30:01:398,1001,2,0,1,138991,108344,143034,37,-988,219
05.10.2024 13:30:01:402,1002,2,0,1,138990,108342,143040,34,-983,220
05.10.2024 13:30:01:406,1003,2,0,1,138987,108350,143035,33,-990,216
05.10.2024 13:30:01:410,1004,2,0,1,138992,108368,143041,38,-985,218
05.10.2024 13:30:01:414,1005,2,0,1,138989,108363,143042,34,-990,218
05.10.2024 13:30:01:418,1006,2,0,1,138992,108375,143044,32,-989,221
05.10.2024 13:30:01:422,1007,2,0,1,138993,108385,143043,33,-992,219
05.10.2024 13:30:01:426,1008,2,0,1,138987,108390,143046,33,-992,223
05.10.2024 13:30:01:430,1009,2,0,1,138995,108389,143047,30,-988,220
05.10.2024 13:30:01:433,1010,2,0,1,138992,108398,143048,32,-992,221
05.10.2024 13:30:01:437,1011,2,0,1,138997,108401,143051,36,-992,222
05.10.2024 13:30:01:441,1012,2,0,1,138988,108405,143052,34,-988,217
05.10.2024 13:30:01:445,1013,2,0,1,138997,108405,143049,31,-986,226
05.10.2024 13:30:01:449,1014,2,0,1,138987,108418,143054,32,-987,218
05.10.2024 13:30:01:453,1015,2,0,1,138989,108423,143049,32,-993,224
05.10.2024 13:30:01:457,1016,2,0,1,138992,108428,143057,32,-993,224
05.10.2024 13:30:01:461,1017,2,0,1,138995,108430,143058,32,-992,222
05.10.2024 13:30:01:465,1018,2,0,1,139000,108443,143050,28,-983,225
05.10.2024 13:30:01:469,1019,2,0,1,138991,108445,143057,30,-986,224
05.10.2024 13:30:01:472,1020,2,0,1,138989,108450,143059,33,-988,226
05.10.2024 13:30:01:476,1021,2,0,1,138989,108459,143061,29,-982,227
05.10.2024 13:30:01:480,1022,2,0,1,138991,108460,143057,32,-983,225
05.10.2024 13:30:01:484,1023,2,0,1,138991,108472,143062,30,-985,222
05.10.2024 13:30:01:488,1024,2,0,1,138991,108475,143066,35,-985,223
05.10.2024 13:30:01:492,1025,2,0,1,138988,108478,143070,34,-987,222
05.10.2024 13:30:01:496,1026,2,0,1,138992,108480,143069,32,-986,222
05.10.2024 13:30:01:500,1027,2,0,1,138985,108489,143063,32,-983,224
05.10.2024 13:30:01:504,1028,2,0,1,138985,108496,143063,30,-987,226
05.10.2024 13:30:01:508,1029,2,0,1,138982,108500,143070,31,-987,223
05.10.2024 13:30:01:511,1030,2,0,1,138981,108509,143063,31,-986,222
05.10.2024 13:30:01:515,1031,2,0,1,138980,108509,143066,36,-984,224
05.10.2024 13:30:01:519,1032,2,0,1,138985,108513,143066,31,-987,224
05.10.2024 13:30:01:523,1033,2,0,1,138985,108526,143068,36,-987,223
05.10.2024 13:30:01:527,1034,2,0,1,138984,108530,143065,36,-990,224
05.10.2024 13:30:01:531,1035,2,0,1,138986,108535,143074,34,-990,220
05.10.2024 13:30:01:535,1036,2,0,1,138987,108538,143072,30,-989,226
05.10.2024 13:30:01:539,1037,2,0,1,138983,108544,143071,33,-984,221
05.10.2024 13:30:01:543,1038,2,0,1,138979,108554,143073,31,-987,221
05.10.2024 13:30:01:547,1039,2,0,1,138985,108556,143074,33,-987,221
05.10.2024 13:30:01:550,1040,2,0,1,138986,108563,143073,31,-988,224
05.10.2024 13:30:01:554,1041,2,0,1,138983,108566,143076,31,-988,224
05.10.2024 13:30:01:558,1042,2,0,1,138982,108564,143078,34,-990,221
05.10.2024 13:30:01:562,1043,2,0,1,138984,108581,143076,38,-987,222
05.10.2024 13:30:01:566,1044,2,0,1,138985,108579,143075,33,-986,225
05.10.2024 13:30:01:570,1045,2,0,1,138986,108578,143075,38,-992,217
05.10.2024 13:30:01:574,1046,2,0,1,138981,108585,143082,38,-989,223
05.10.2024 13:30:01:578,1047,2,0,1,138987,108595,143080,30,-988,221
05.10.2024 13:30:01:582,1048,2,0,1,138984,108602,143082,33,-988,217
05.10.2024 13:30:01:586,1049,2,0,1,138985,108602,143086,32,-989,220
05.10.2024 13:30:01:589,1050,2,0,1,138982,108597,143091,32,-986,222
05.10.2024 13:30:01:593,1051,2,0,1,138988,108615,143084,33,-989,222
05.10.2024 13:30:01:597,1052,2,0,1,138988,108616,143080,35,-989,221
05.10.2024 13:30:01:601,1053,2,0,1,138980,108625,143087,37,-991,218
05.10.2024 13:30:01:605,1054,2,0,1,138984,108626,143082,32,-990,218
05.10.2024 13:30:01:609,1055,2,0,1,138980,108628,143084,37,-988,222
05.10.2024 13:30:01:613,1056,2,0,1,138981,108633,143086,33,-987,222
05.10.2024 13:30:01:617,1057,2,0,1,138983,108643,143092,36,-987,218
05.10.2024 13:30:01:621,1058,2,0,1,138985,108647,143086,37,-986,219
05.10.2024 13:30:01:625,1059,2,0,1,138983,108653,143086,34,-986,219
05.10.2024 13:30:01:628,1060,2,0,1,138986,108661,143095,31,-986,223
05.10.2024 13:30:01:632,1061,2,0,1,138986,108667,143094,34,-985,218
05.10.2024 13:30:01:636,1062,2,0,1,138985,108669,143090,34,-986,224
05.10.2024 13:30:01:640,1063,2,0,1,138980,108668,143093,37,-989,228
05.10.2024 13:30:01:644,1064,2,0,1,138981,108682,143093,31,-986,222
05.10.2024 13:30:01:648,1065,2,0,1,138982,108694,143095,38,-987,223
05.10.2024 13:30:01:652,1066,2,0,1,138986,108684,143098,38,-987,223
05.10.2024 13:30:01:656,1067,2,0,1,138982,108702,143093,33,-983,227
05.10.2024 13:30:01:660,1068,2,0,1,138983,108705,143107,36,-986,226
05.10.2024 13:30:01:664,1069,2,0,1,138981,108710,143101,34,-987,224
05.10.2024 13:30:01:667,1070,2,0,1,138981,108709,143104,39,-983,224
05.10.2024 13:30:01:671,1071,2,0,1,138984,108718,143101,33,-989,225
05.10.2024 13:30:01:675,1072,2,0,1,138980,108721,143097,32,-990,223
05.10.2024 13:30:01:679,1073,2,0,1,138983,108728,143102,31,-988,223
05.10.2024 13:30:01:683,1074,2,0,1,138975,108737,143105,34,-989,226
05.10.2024 13:30:01:687,1075,2,0,1,138982,108743,143105,35,-984,223
05.10.2024 13:30:01:691,1076,2,0,1,138977,108740,143109,36,-988,224
05.10.2024 13:30:01:695,1077,2,0,1,138981,108752,143114,31,-986,225
05.10.2024 13:30:01:699,1078,2,0,1,138982,108764,143112,35,-983,223
05.10.2024 13:30:01:703,1079,2,0,1,138982,108768,143108,34,-983,226
05.10.2024 13:30:01:706,1080,2,0,1,138980,108770,143111,37,-986,225
05.10.2024 13:30:01:710,1081,2,0,1,138981,108776,143111,34,-984,224
05.10.2024 13:30:01:714,1082,2,0,1,138980,108789,143116,32,-985,221
05.10.2024 13:30:01:718,1083,2,0,1,138974,108788,143112,33,-982,223
05.10.2024 13:30:01:722,1084,2,0,1,138979,108792,143118,39,-986,221
05.10.2024 13:30:01:726,1085,2,0,1,138979,108801,143122,34,-993,219
05.10.2024 13:30:01:730,1086,2,0,1,138979,108816,143114,36,-985,224
05.10.2024 13:30:01:734,1087,2,0,1,138978,108817,143118,32,-984,227
05.10.2024 13:30:01:738,1088,2,0,1,138981,108822,143127,35,-985,228
05.10.2024 13:30:01:742,1089,2,0,1,138980,108834,143123,34,-987,221
05.10.2024 13:30:01:745,1090,2,0,1,138980,108833,143126,34,-983,224
05.10.2024 13:30:01:749,1091,2,0,1,138974,108835,143120,34,-983,224
05.10.2024 13:30:01:753,1092,2,0,1,138979,108849,143132,36,-982,225
05.10.2024 13:30:01:757,1093,2,0,1,138980,108850,143126,33,-989,226
05.10.2024 13:30:01:761,1094,2,0,1,138985,108866,143130,35,-986,229
05.10.2024 13:30:01:765,1095,2,0,1,138977,108861,143125,32,-989,229
05.10.2024 13:30:01:769,1096,2,0,1,138982,108887,143134,33,-990,227
05.10.2024 13:30:01:773,1097,2,0,1,138975,108882,143137,36,-988,226
05.10.2024 13:30:01:777,1098,2,0,1,138986,108887,143131,36,-992,222
05.10.2024 13:30:01:781,1099,2,0,1,138983,108901,143140,34,-994,223
05.10.2024 13:30:01:784,1100,2,0,1,138979,108900,143134,37,-989,226
05.10.2024 13:30:01:788,1101,2,0,1,138978,108909,143141,38,-990,222
05.10.2024 13:30:01:792,1102,2,0,1,138978,108911,143142,35,-988,223
05.10.2024 13:30:01:796,1103,2,0,1,138978,108924,143138,35,-988,228
05.10.2024 13:30:01:800,1104,2,0,1,138978,108929,143138,35,-995,226
05.10.2024 13:30:01:804,1105,2,0,1,138983,108941,143143,37,-995,220
05.10.2024 13:30:01:808,1106,2,0,1,138980,108935,143148,37,-987,222
05.10.2024 13:30:01:812,1107,2,0,1,138984,108947,143147,34,-989,223
05.10.2024 13:30:01:816,1108,2,0,1,138985,108961,143141,36,-988,225
05.10.2024 13:30:01:820,1109,2,0,1,138976,108968,143144,34,-990,223
05.10.2024 13:30:01:823,1110,2,0,1,138984,108967,143143,35,-990,224
05.10.2024 13:30:01:827,1111,2,0,1,138985,108983,143139,37,-988,219
05.10.2024 13:30:01:831,1112,2,0,1,138978,108984,143143,37,-988,222
05.10.2024 13:30:01:835,1113,2,0,1,138975,108984,143137,39,-988,222
05.10.2024 13:30:01:839,1114,2,0,1,138980,108982,143140,38,-988,225
05.10.2024 13:30:01:843,1115,2,0,1,138968,108978,143132,33,-990,220
05.10.2024 13:30:01:847,1116,2,0,1,138963,108969,143124,33,-990,220
05.10.2024 13:30:01:851,1117,2,0,1,138967,108960,143116,34,-983,222
05.10.2024 13:30:01:855,1118,2,0,1,138952,108965,143108,37,-982,223
05.10.2024 13:30:01:858,1119,2,0,1,138949,108951,143096,39,-981,222
05.10.2024 13:30:01:862,1120,2,0,1,138948,108933,143093,37,-989,224
05.10.2024 13:30:01:866,1121,2,0,1,138937,108912,143087,34,-987,222
05.10.2024 13:30:01:870,1122,2,0,1,138939,108890,143078,36,-989,225
05.10.2024 13:30:01:874,1123,2,0,1,138928,108875,143073,35,-986,228
05.10.2024 13:30:01:878,1124,2,0,1,138929,108844,143067,34,-983,224
05.10.2024 13:30:01:882,1125,2,0,1,138927,108820,143062,35,-983,227
05.10.2024 13:30:01:886,1126,2,0,1,138921,108799,143054,36,-982,224
05.10.2024 13:30:01:890,1127,2,0,1,138918,108780,143043,39,-984,226
05.10.2024 13:30:01:894,1128,2,0,1,138913,108742,143036,31,-984,227
05.10.2024 13:30:01:897,1129,2,0,1,138905,108725,143025,35,-987,226
05.10.2024 13:30:01:901,1130,2,0,1,138908,108692,143029,35,-985,227
05.10.2024 13:30:01:905,1131,2,0,1,138906,108674,143023,41,-984,223
05.10.2024 13:30:01:909,1132,2,0,1,138904,108642,143014,33,-982,222
05.10.2024 13:30:01:913,1133,2,0,1,138901,108619,143009,32,-984,225
05.10.2024 13:30:01:917,1134,2,0,1,138897,108587,143009,34,-982,226
05.10.2024 13:30:01:921,1135,2,0,1,138896,108563,143000,34,-984,223
05.10.2024 13:30:01:925,1136,2,0,1,138893,108540,143001,34,-986,227
05.10.2024 13:30:01:929,1137,2,0,1,138891,108512,143000,33,-989,217
05.10.2024 13:30:01:933,1138,2,0,1,138891,108500,142994,39,-983,223
05.10.2024 13:30:01:936,1139,2,0,1,138884,108483,142991,39,-984,223
05.10.2024 13:30:01:940,1140,2,0,1,138888,108454,142992,36,-985,222
05.10.2024 13:30:01:944,1141,2,0,1,138886,108446,142990,36,-981,227
05.10.2024 13:30:01:948,1142,2,0,1,138887,108425,142981,38,-988,222
05.10.2024 13:30:01:952,1143,2,0,1,138883,108418,142982,37,-987,227
05.10.2024 13:30:01:956,1144,2,0,1,138881,108391,142981,35,-989,223
05.10.2024 13:30:01:960,1145,2,0,1,138885,108389,142990,37,-991,223
05.10.2024 13:30:01:964,1146,2,0,1,138878,108382,142977,35,-990,220
05.10.2024 13:30:01:968,1147,2,0,1,138879,108367,142978,32,-989,226
05.10.2024 13:30:01:972,1148,2,0,1,138879,108364,142982,31,-989,223
05.10.2024 13:30:01:975,1149,2,0,1,138878,108352,142980,38,-991,224
05.10.2024 13:30:01:979,1150,2,0,1,138878,108343,142983,35,-989,225
05.10.2024 13:30:01:983,1151,2,0,1,138876,108326,142985,36,-992,224
05.10.2024 13:30:01:987,1152,2,0,1,138879,108325,142976,36,-985,226
05.10.2024 13:30:01:991,1153,2,0,1,138874,108323,142979,35,-988,226
05.10.2024 13:30:01:995,1154,2,0,1,138875,108319,142980,35,-986,226
05.10.2024 13:30:01:999,1155,2,0,1,138875,108312,142981,35,-985,228
05.10.2024 13:30:02:3,1156,2,0,1,138876,108306,142975,36,-988,224
05.10.2024 13:30:02:7,1157,2,0,1,138873,108306,142982,35,-988,227
05.10.2024 13:30:02:11,1158,2,0,1,138868,108295,142975,40,-984,225
05.10.2024 13:30:02:14,1159,2,0,1,138872,108299,142981,38,-988,225
05.10.2024 13:30:02:18,1160,2,0,1,138869,108290,142979,39,-984,226
05.10.2024 13:30:02:22,1161,2,0,1,138868,108291,142972,37,-979,223
05.10.2024 13:30:02:26,1162,2,0,1,138868,108293,142977,39,-986,222
05.10.2024 13:30:02:30,1163,2,0,1,138868,108298,142980,34,-986,222
05.10.2024 13:30:02:34,1164,2,0,1,138864,108292,142980,35,-989,226
05.10.2024 13:30:02:38,1165,2,0,1,138868,108289,142977,32,-984,224
05.10.2024 13:30:02:42,1166,2,0,1,138863,108283,142975,32,-984,224
05.10.2024 13:30:02:46,1167,2,0,1,138871,108284,142979,35,-985,222
05.10.2024 13:30:02:50,1168,2,0,1,138862,108282,142978,36,-986,220
05.10.2024 13:30:02:53,1169,2,0,1,138866,108282,142974,37,-984,226
05.10.2024 13:30:02:57,1170,2,0,1,138865,108284,142976,36,-984,223
05.10.2024 13:30:02:61,1171,2,0,1,138867,108293,142978,38,-984,227
05.10.2024 13:30:02:65,1172,2,0,1,138863,108284,142981,33,-984,225
05.10.2024 13:30:02:69,1173,2,0,1,138864,108287,142978,39,-986,223
05.10.2024 13:30:02:73,1174,2,0,1,138865,108298,142986,36,-985,230
05.10.2024 13:30:02:77,1175,2,0,1,138873,108294,142992,36,-985,229
05.10.2024 13:30:02:81,1176,2,0,1,138868,108295,142986,38,-983,224
05.10.2024 13:30:02:85,1177,2,0,1,138868,108304,142991,39,-986,227
05.10.2024 13:30:02:89,1178,2,0,1,138866,108300,142993,36,-987,231
05.10.2024 13:30:02:92,1179,2,0,1,138865,108318,142993,37,-987,227
05.10.2024 13:30:02:96,1180,2,0,1,138864,108318,142993,37,-988,225
05.10.2024 13:30:02:100,1181,2,0,1,138862,108309,142990,36,-985,223
05.10.2024 13:30:02:104,1182,2,0,1,138867,108322,142993,36,-988,223
05.10.2024 13:30:02:108,1183,2,0,1,138867,108314,142996,40,-988,220
05.10.2024 13:30:02:112,1184,2,0,1,138864,108324,142996,40,-986,227
05.10.2024 13:30:02:116,1185,2,0,1,138866,108320,142993,37,-984,224
05.10.2024 13:30:02:120,1186,2,0,1,138861,108317,142998,37,-987,225
05.10.2024 13:30:02:124,1187,2,0,1,138860,108321,142990,36,-989,225
05.10.2024 13:30:02:128,1188,2,0,1,138863,108324,142997,40,-991,220
05.10.2024 13:30:02:131,1189,2,0,1,138861,108324,142997,39,-990,232
05.10.2024 13:30:02:135,1190,2,0,1,138858,108317,142992,35,-992,223
05.10.2024 13:30:02:139,1191,2,0,1,138859,108318,142999,35,-992,223
05.10.2024 13:30:02:143,1192,2,0,1,138861,108319,142995,38,-991,226
05.10.2024 13:30:02:147,1193,2,0,1,138860,108315,142994,37,-980,227
05.10.2024 13:30:02:151,1194,2,0,1,138854,108320,142992,37,-985,229
05.10.2024 13:30:02:155,1195,2,0,1,138860,108313,142994,39,-988,230
05.10.2024 13:30:02:159,1196,2,0,1,138857,108317,142992,38,-984,227
05.10.2024 13:30:02:163,1197,2,0,1,138855,108314,142991,40,-987,227
05.10.2024 13:30:02:167,1198,2,0,1,138857,108309,142988,34,-987,227
05.10.2024 13:30:02:170,1199,2,0,1,138856,108304,142986,37,-986,227
05.10.2024 13:30:02:174,1200,2,0,1,138847,108311,142981,35,-981,226
05.10.2024 13:30:02:178,1201,2,0,1,138845,108302,142984,38,-987,228
05.10.2024 13:30:02:182,1202,2,0,1,138845,108306,142980,34,-982,224
05.10.2024 13:30:02:186,1203,2,0,1,138842,108295,142980,39,-987,225
05.10.2024 13:30:02:190,1204,2,0,1,138844,108286,142976,40,-986,227
05.10.2024 13:30:02:194,1205,2,0,1,138844,108292,142973,42,-986,223
05.10.2024 13:30:02:198,1206,2,0,1,138839,108294,142979,38,-983,226
05.10.2024 13:30:02:202,1207,2,0,1,138841,108290,142976,40,-985,227
05.10.2024 13:30:02:206,1208,2,0,1,138840,108290,142973,38,-984,225
05.10.2024 13:30:02:209,1209,2,0,1,138842,108280,142978,37,-989,227
05.10.2024 13:30:02:213,1210,2,0,1,138834,108278,142981,38,-984,224
05.10.2024 13:30:02:217,1211,2,0,1,138832,108285,142971,40,-983,223
05.10.2024 13:30:02:221,1212,2,0,1,138834,108281,142972,38,-986,226
05.10.2024 13:30:02:225,1213,2,0,1,138832,108267,142967,32,-985,227
05.10.2024 13:30:02:229,1214,2,0,1,138828,108268,142965,35,-986,223
05.10.2024 13:30:02:233,1215,2,0,1,138830,108267,142973,40,-984,226
05.10.2024 13:30:02:237,1216,2,0,1,138829,108271,142975,40,-984,226
05.10.2024 13:30:02:241,1217,2,0,1,138829,108266,142969,38,-987,221
05.10.2024 13:30:02:245,1218,2,0,1,138836,108275,142970,41,-989,229
05.10.2024 13:30:02:248,1219,2,0,1,138830,108264,142970,41,-990,218
05.10.2024 13:30:02:252,1220,2,0,1,138829,108266,142972,37,-986,220
05.10.2024 13:30:02:256,1221,2,0,1,138830,108275,142975,40,-990,220
05.10.2024 13:30:02:260,1222,2,0,1,138832,108272,142979,42,-989,224
05.10.2024 13:30:02:264,1223,2,0,1,138829,108283,142971,36,-989,222
05.10.2024 13:30:02:268,1224,2,0,1,138828,108271,142977,39,-990,222
05.10.2024 13:30:02:272,1225,2,0,1,138826,108283,142979,39,-994,225
05.10.2024 13:30:02:276,1226,2,0,1,138828,108278,142987,36,-987,226
05.10.2024 13:30:02:280,1227,2,0,1,138826,108288,142981,35,-988,225
05.10.2024 13:30:02:284,1228,2,0,1,138823,108286,142984,38,-988,224
05.10.2024 13:30:02:287,1229,2,0,1,138824,108286,142985,39,-986,222
05.10.2024 13:30:02:291,1230,2,0,1,138822,108292,142982,38,-993,228
05.10.2024 13:30:02:295,1231,2,0,1,138820,108297,142989,35,-987,230
05.10.2024 13:30:02:299,1232,2,0,1,138828,108302,142984,36,-989,226
05.10.2024 13:30:02:303,1233,2,0,1,138827,108296,142988,42,-987,223
05.10.2024 13:30:02:307,1234,2,0,1,138825,108305,142987,40,-990,222
05.10.2024 13:30:02:311,1235,2,0,1,138827,108314,142986,35,-988,222
05.10.2024 13:30:02:315,1236,2,0,1,138828,108318,142994,39,-989,226
05.10.2024 13:30:02:319,1237,2,0,1,138828,108324,142996,37,-987,226
05.10.2024 13:30:02:323,1238,2,0,1,138825,108329,142991,36,-984,226
05.10.2024 13:30:02:326,1239,2,0,1,138819,108333,142995,39,-984,225
05.10.2024 13:30:02:330,1240,2,0,1,138822,108335,142997,38,-986,226
05.10.2024 13:30:02:334,1241,2,0,1,138822,108334,142997,38,-987,229
05.10.2024 13:30:02:338,1242,2,0,1,138821,108350,142997,36,-982,225
05.10.2024 13:30:02:342,1243,2,0,1,138823,108346,142991,38,-981,226
05.10.2024 13:30:02:346,1244,2,0,1,138819,108356,143003,35,-988,225
05.10.2024 13:30:02:350,1245,2,0,1,138823,108359,142999,31,-989,224
05.10.2024 13:30:02:354,1246,2,0,1,138820,108366,143002,38,-984,226
05.10.2024 13:30:02:358,1247,2,0,1,138813,108372,143000,39,-990,225
05.10.2024 13:30:02:362,1248,2,0,1,138818,108377,143004,40,-987,228
05.10.2024 13:30:02:365,1249,2,0,1,138818,108376,143002,39,-987,228
05.10.2024 13:30:02:369,1250,2,0,1,138820,108384,143003,38,-986,226
05.10.2024 13:30:02:373,1251,2,0,1,138814,108391,143006,39,-985,227
05.10.2024 13:30:02:377,1252,2,0,1,138816,108402,143012,36,-989,227
05.10.2024 13:30:02:381,1253,2,0,1,138816,108400,143005,38,-990,222
05.10.2024 13:30:02:385,1254,2,0,1,138809,108408,143005,39,-987,231
05.10.2024 13:30:02:389,1255,2,0,1,138817,108415,143008,40,-987,228
05.10.2024 13:30:02:393,1256,2,0,1,138812,108412,143005,37,-986,221
05.10.2024 13:30:02:397,1257,2,0,1,138814,108421,143008,40,-984,226
05.10.2024 13:30:02:401,1258,2,0,1,138813,108427,143008,39,-983,229
05.10.2024 13:30:02:404,1259,2,0,1,138811,108431,143006,40,-984,224
05.10.2024 13:30:02:408,1260,2,0,1,138814,108450,143008,40,-983,230
05.10.2024 13:30:02:412,1261,2,0,1,138809,108449,143013,37,-986,228
05.10.2024 13:30:02:416,1262,2,0,1,138812,108461,143006,40,-981,229
05.10.2024 13:30:02:420,1263,2,0,1,138816,108460,143009,42,-981,225
05.10.2024 13:30:02:424,1264,2,0,1,138810,108459,143010,39,-986,224
05.10.2024 13:30:02:428,1265,2,0,1,138813,108472,143009,43,-984,216
05.10.2024 13:30:02:432,1266,2,0,1,138804,108482,143020,34,-981,226
05.10.2024 13:30:02:436,1267,2,0,1,138797,108490,143002,47,-976,228
05.10.2024 13:30:02:440,1268,2,0,1,138802,108495,143008,33,-972,234
05.10.2024 13:30:02:443,1269,2,0,1,138796,108488,143010,37,-981,229
05.10.2024 13:30:02:447,1270,2,0,1,138793,108499,143006,42,-990,226
05.10.2024 13:30:02:451,1271,2,0,1,138783,108515,143007,44,-992,222
05.10.2024 13:30:02:455,1272,2,0,1,138780,108515,143007,40,-987,225
05.10.2024 13:30:02:459,1273,2,0,1,138778,108524,143009,38,-983,231
05.10.2024 13:30:02:463,1274,2,0,1,138774,108533,142999,38,-980,230
05.10.2024 13:30:02:467,1275,2,0,1,138774,108543,143006,37,-979,231
05.10.2024 13:30:02:471,1276,2,0,1,138775,108543,143003,39,-994,229
05.10.2024 13:30:02:475,1277,2,0,1,138768,108558,142999,40,-1000,229
05.10.2024 13:30:02:479,1278,2,0,1,138765,108576,143001,37,-995,223
05.10.2024 13:30:02:482,1279,2,0,1,138764,108585,142999,42,-991,228
05.10.2024 13:30:02:486,1280,2,0,1,138759,108589,143005,37,-991,222
05.10.2024 13:30:02:490,1281,2,0,1,138759,108604,143005,40,-984,221
05.10.2024 13:30:02:494,1282,2,0,1,138760,108611,143010,43,-988,226
05.10.2024 13:30:02:498,1283,2,0,1,138758,108624,142996,42,-987,229
05.10.2024 13:30:02:502,1284,2,0,1,138756,108622,143003,43,-988,230
05.10.2024 13:30:02:506,1285,2,0,1,138747,108645,143007,40,-988,225
05.10.2024 13:30:02:510,1286,2,0,1,138755,108660,143005,40,-982,228
05.10.2024 13:30:02:514,1287,2,0,1,138750,108670,143003,40,-986,227
05.10.2024 13:30:02:518,1288,2,0,1,138749,108667,143008,41,-981,226
05.10.2024 13:30:02:521,1289,2,0,1,138749,108681,143010,46,-986,229
05.10.2024 13:30:02:525,1290,2,0,1,138754,108699,143007,44,-984,227
05.10.2024 13:30:02:529,1291,2,0,1,138745,108700,143016,40,-987,230
05.10.2024 13:30:02:533,1292,2,0,1,138744,108712,143011,42,-987,228
05.10.2024 13:30:02:537,1293,2,0,1,138746,108731,143019,40,-987,229
05.10.2024 13:30:02:541,1294,2,0,1,138744,108734,143019,38,-987,226
05.10.2024 13:30:02:545,1295,2,0,1,138749,108741,143018,39,-988,228
05.10.2024 13:30:02:549,1296,2,0,1,138751,108747,143024,43,-980,224
05.10.2024 13:30:02:553,1297,2,0,1,138752,108768,143017,41,-985,226
05.10.2024 13:30:02:557,1298,2,0,1,138754,108774,143020,48,-983,224
05.10.2024 13:30:02:560,1299,2,0,1,138746,108787,143024,41,-986,225
05.10.2024 13:30:02:564,1300,2,0,1,138752,108795,143027,42,-988,226
05.10.2024 13:30:02:568,1301,2,0,1,138751,108805,143021,40,-984,226
05.10.2024 13:30:02:572,1302,2,0,1,138749,108813,143028,42,-988,222
05.10.2024 13:30:02:576,1303,2,0,1,138749,108832,143031,40,-985,227
05.10.2024 13:30:02:580,1304,2,0,1,138756,108841,143027,42,-987,227
05.10.2024 13:30:02:584,1305,2,0,1,138752,108843,143034,38,-981,224
05.10.2024 13:30:02:588,1306,2,0,1,138751,108860,143027,40,-985,228
05.10.2024 13:30:02:592,1307,2,0,1,138753,108874,143031,43,-983,226
05.10.2024 13:30:02:596,1308,2,0,1,138753,108873,143032,39,-987,225
05.10.2024 13:30:02:599,1309,2,0,1,138755,108885,143035,40,-984,227
05.10.2024 13:30:02:603,1310,2,0,1,138760,108895,143034,43,-984,227
05.10.2024 13:30:02:607,1311,2,0,1,138758,108901,143039,36,-986,227
05.10.2024 13:30:02:611,1312,2,0,1,138757,108909,143042,42,-984,226
05.10.2024 13:30:02:615,1313,2,0,1,138764,108921,143043,42,-983,231
05.10.2024 13:30:02:619,1314,2,0,1,138755,108930,143047,43,-982,227
05.10.2024 13:30:02:623,1315,2,0,1,138756,108947,143049,43,-983,222
05.10.2024 13:30:02:627,1316,2,0,1,138759,108953,143049,42,-984,227
05.10.2024 13:30:02:631,1317,2,0,1,138763,108956,143050,40,-989,224
05.10.2024 13:30:02:635,1318,2,0,1,138764,108968,143053,43,-989,228
05.10.2024 13:30:02:638,1319,2,0,1,138760,108974,143057,39,-991,228
05.10.2024 13:30:02:642,1320,2,0,1,138766,108987,143062,39,-988,222
05.10.2024 13:30:02:646,1321,2,0,1,138766,109003,143060,41,-990,227
05.10.2024 13:30:02:650,1322,2,0,1,138767,109008,143064,40,-991,224
05.10.2024 13:30:02:654,1323,2,0,1,138771,109016,143063,37,-986,225
05.10.2024 13:30:02:658,1324,2,0,1,138768,109030,143067,39,-987,225
05.10.2024 13:30:02:662,1325,2,0,1,138770,109030,143067,40,-989,224
05.10.2024 13:30:02:666,1326,2,0,1,138768,109051,143067,39,-986,226
05.10.2024 13:30:02:670,1327,2,0,1,138770,109048,143071,39,-990,227
05.10.2024 13:30:02:674,1328,2,0,1,138770,109071,143070,37,-991,225
05.10.2024 13:30:02:677,1329,2,0,1,138770,109079,143077,39,-989,227
05.10.2024 13:30:02:681,1330,2,0,1,138776,109080,143082,40,-987,222
05.10.2024 13:30:02:685,1331,2,0,1,138782,109092,143083,36,-990,227
05.10.2024 13:30:02:689,1332,2,0,1,138778,109100,143085,43,-989,225
05.10.2024 13:30:02:693,1333,2,0,1,138778,109116,143089,42,-989,224
05.10.2024 13:30:02:697,1334,2,0,1,138783,109129,143090,40,-989,223
05.10.2024 13:30:02:701,1335,2,0,1,138781,109132,143089,44,-991,224
05.10.2024 13:30:02:705,1336,2,0,1,138783,109133,143097,41,-986,226
05.10.2024 13:30:02:709,1337,2,0,1,138782,109144,143091,42,-989,222
05.10.2024 13:30:02:713,1338,2,0,1,138784,109152,143095,44,-985,227
05.10.2024 13:30:02:716,1339,2,0,1,138782,109156,143102,44,-986,222
05.10.2024 13:30:02:720,1340,2,0,1,138788,109177,143101,45,-989,222
05.10.2024 13:30:02:724,1341,2,0,1,138791,109175,143104,41,-987,219
05.10.2024 13:30:02:728,1342,2,0,1,138786,109194,143097,45,-988,224
05.10.2024 13:30:02:732,1343,2,0,1,138788,109205,143096,41,-985,226
05.10.2024 13:30:02:736,1344,2,0,1,138790,109201,143093,42,-990,223
05.10.2024 13:30:02:740,1345,2,0,1,138784,109195,143091,42,-988,229
05.10.2024 13:30:02:744,1346,2,0,1,138778,109198,143084,39,-982,226
05.10.2024 13:30:02:748,1347,2,0,1,138779,109206,143082,37,-983,226
05.10.2024 13:30:02:752,1348,2,0,1,138777,109190,143075,37,-983,226
05.10.2024 13:30:02:755,1349,2,0,1,138777,109183,143067,41,-985,224
05.10.2024 13:30:02:759,1350,2,0,1,138766,109169,143063,35,-986,230
05.10.2024 13:30:02:763,1351,2,0,1,138764,109158,143067,40,-984,227
05.10.2024 13:30:02:767,1352,2,0,1,138770,109139,143049,39,-981,227
05.10.2024 13:30:02:771,1353,2,0,1,138764,109125,143050,38,-986,231
05.10.2024 13:30:02:775,1354,2,0,1,138759,109109,143039,37,-987,227
05.10.2024 13:30:02:779,1355,2,0,1,138757,109090,143033,39,-985,234
05.10.2024 13:30:02:783,1356,2,0,1,138750,109075,143024,35,-981,228
05.10.2024 13:30:02:787,1357,2,0,1,138749,109044,143022,39,-982,228
05.10.2024 13:30:02:791,1358,2,0,1,138747,109025,143022,38,-987,231
05.10.2024 13:30:02:794,1359,2,0,1,138743,109007,143018,33,-985,223
05.10.2024 13:30:02:798,1360,2,0,1,138740,108987,143012,33,-982,223
05.10.2024 13:30:02:802,1361,2,0,1,138744,108957,143007,35,-983,225
05.10.2024 13:30:02:806,1362,2,0,1,138741,108945,143001,39,-983,226
05.10.2024 13:30:02:810,1363,2,0,1,138743,108920,143004,37,-987,227
05.10.2024 13:30:02:814,1364,2,0,1,138745,108906,142999,40,-983,224
05.10.2024 13:30:02:818,1365,2,0,1,138743,108880,142999,36,-986,225
05.10.2024 13:30:02:822,1366,2,0,1,138739,108866,142994,38,-985,227
05.10.2024 13:30:02:826,1367,2,0,1,138741,108840,142996,33,-987,229
05.10.2024 13:30:02:830,1368,2,0,1,138738,108816,142992,37,-988,225
05.10.2024 13:30:02:833,1369,2,0,1,138740,108806,142986,40,-987,230
05.10.2024 13:30:02:837,1370,2,0,1,138738,108790,142983,38,-988,230
05.10.2024 13:30:02:841,1371,2,0,1,138740,108772,142990,38,-988,228
05.10.2024 13:30:02:845,1372,2,0,1,138738,108754,142985,35,-993,227
05.10.2024 13:30:02:849,1373,2,0,1,138743,108745,142990,40,-986,224
05.10.2024 13:30:02:853,1374,2,0,1,138745,108742,142987,39,-987,223
05.10.2024 13:30:02:857,1375,2,0,1,138745,108738,142987,36,-981,229
05.10.2024 13:30:02:861,1376,2,0,1,138744,108726,142978,36,-983,227
05.10.2024 13:30:02:865,1377,2,0,1,138746,108716,142992,39,-991,227
05.10.2024 13:30:02:869,1378,2,0,1,138751,108710,142987,37,-988,230
05.10.2024 13:30:02:872,1379,2,0,1,138749,108706,142987,39,-987,227
05.10.2024 13:30:02:876,1380,2,0,1,138744,108689,142986,40,-991,224
05.10.2024 13:30:02:880,1381,2,0,1,138745,108690,142992,37,-984,227
05.10.2024 13:30:02:884,1382,2,0,1,138746,108689,142994,40,-982,229
05.10.2024 13:30:02:888,1383,2,0,1,138751,108685,142992,40,-985,226
05.10.2024 13:30:02:892,1384,2,0,1,138747,108670,142999,37,-982,227
05.10.2024 13:30:02:896,1385,2,0,1,138753,108679,143002,42,-987,230
05.10.2024 13:30:02:900,1386,2,0,1,138751,108677,143004,40,-985,222
05.10.2024 13:30:02:904,1387,2,0,1,138755,108680,143000,36,-984,226
05.10.2024 13:30:02:908,1388,2,0,1,138757,108680,142997,39,-982,231
05.10.2024 13:30:02:911,1389,2,0,1,138758,108678,143003,40,-979,230
05.10.2024 13:30:02:915,1390,2,0,1,138758,108679,143002,38,-981,223
05.10.2024 13:30:02:919,1391,2,0,1,138764,108673,143003,41,-986,226
05.10.2024 13:30:02:923,1392,2,0,1,138760,108677,143002,40,-985,225
05.10.2024 13:30:02:927,1393,2,0,1,138763,108672,143014,34,-981,227
05.10.2024 13:30:02:931,1394,2,0,1,138765,108681,143012,39,-983,227
05.10.2024 13:30:02:935,1395,2,0,1,138766,108690,143017,40,-986,224
05.10.2024 13:30:02:939,1396,2,0,1,138771,108686,143020,38,-983,226
05.10.2024 13:30:02:943,1397,2,0,1,138773,108696,143030,40,-986,229
05.10.2024 13:30:02:947,1398,2,0,1,138773,108700,143027,40,-983,229
05.10.2024 13:30:02:950,1399,2,0,1,138776,108703,143031,36,-986,232
05.10.2024 13:30:02:954,1400,2,0,1,138777,108712,143032,34,-984,229
05.10.2024 13:30:02:958,1401,2,0,1,138786,108720,143032,38,-984,229
05.10.2024 13:30:02:962,1402,2,0,1,138782,108725,143039,40,-984,230
05.10.2024 13:30:02:966,1403,2,0,1,138784,108736,143039,35,-986,230
05.10.2024 13:30:02:970,1404,2,0,1,138784,108735,143045,39,-986,230
05.10.2024 13:30:02:974,1405,2,0,1,138786,108748,143038,40,-990,223
05.10.2024 13:30:02:978,1406,2,0,1,138790,108756,143047,39,-986,221
05.10.2024 13:30:02:982,1407,2,0,1,138793,108755,143049,40,-985,223
05.10.2024 13:30:02:986,1408,2,0,1,138793,108771,143055,41,-989,230
05.10.2024 13:30:02:989,1409,2,0,1,138793,108782,143050,39,-993,224
05.10.2024 13:30:02:993,1410,2,0,1,138791,108782,143057,40,-988,224
05.10.2024 13:30:02:997,1411,2,0,1,138798,108791,143061,39,-990,227
05.10.2024 13:30:03:1,1412,2,0,1,138796,108778,143055,38,-989,225
05.10.2024 13:30:03:5,1413,2,0,1,138800,108789,143059,39,-993,225
05.10.2024 13:30:03:9,1414,2,0,1,138796,108793,143059,40,-994,224
05.10.2024 13:30:03:13,1415,2,0,1,138799,108801,143059,35,-985,224
05.10.2024 13:30:03:17,1416,2,0,1,138801,108795,143061,37,-987,223
05.10.2024 13:30:03:21,1417,2,0,1,138804,108812,143058,35,-982,230
05.10.2024 13:30:03:25,1418,2,0,1,138801,108802,143059,36,-986,227
05.10.2024 13:30:03:28,1419,2,0,1,138803,108804,143062,35,-988,228
05.10.2024 13:30:03:32,1420,2,0,1,138806,108809,143057,40,-984,222
05.10.2024 13:30:03:36,1421,2,0,1,138802,108815,143063,38,-986,224
05.10.2024 13:30:03:40,1422,2,0,1,138804,108813,143069,35,-982,229
05.10.2024 13:30:03:44,1423,2,0,1,138808,108808,143058,40,-985,223
05.10.2024 13:30:03:48,1424,2,0,1,138799,108804,143064,38,-982,228
05.10.2024 13:30:03:52,1425,2,0,1,138803,108796,143063,37,-983,225
05.10.2024 13:30:03:56,1426,2,0,1,138805,108796,143061,35,-982,227
05.10.2024 13:30:03:60,1427,2,0,1,138804,108797,143054,35,-979,221
05.10.2024 13:30:03:64,1428,2,0,1,138797,108800,143058,40,-983,226
05.10.2024 13:30:03:67,1429,2,0,1,138800,108792,143061,34,-980,220
05.10.2024 13:30:03:71,1430,2,0,1,138804,108794,143060,36,-982,229
05.10.2024 13:30:03:75,1431,2,0,1,138807,108789,143059,36,-986,224
05.10.2024 13:30:03:79,1432,2,0,1,138806,108784,143054,37,-986,226
05.10.2024 13:30:03:83,1433,2,0,1,138801,108776,143059,35,-987,225
05.10.2024 13:30:03:87,1434,2,0,1,138798,108773,143060,38,-988,227
05.10.2024 13:30:03:91,1435,2,0,1,138800,108775,143056,40,-985,226
05.10.2024 13:30:03:95,1436,2,0,1,138804,108778,143056,39,-985,222
05.10.2024 13:30:03:99,1437,2,0,1,138806,108765,143056,37,-988,226
05.10.2024 13:30:03:103,1438,2,0,1,138805,108761,143063,38,-987,230
05.10.2024 13:30:03:106,1439,2,0,1,138805,108749,143058,37,-985,231
05.10.2024 13:30:03:110,1440,2,0,1,138813,108752,143057,40,-993,222
05.10.2024 13:30:03:114,1441,2,0,1,138806,108765,143061,33,-984,226
05.10.2024 13:30:03:118,1442,2,0,1,138808,108758,143065,40,-989,227
05.10.2024 13:30:03:122,1443,2,0,1,138808,108762,143064,38,-988,227
05.10.2024 13:30:03:126,1444,2,0,1,138808,108754,143064,38,-991,224
05.10.2024 13:30:03:130,1445,2,0,1,138816,108756,143070,34,-986,224
05.10.2024 13:30:03:134,1446,2,0,1,138816,108762,143074,38,-988,225
05.10.2024 13:30:03:138,1447,2,0,1,138813,108757,143067,38,-987,226
05.10.2024 13:30:03:142,1448,2,0,1,138811,108763,143075,37,-989,222
05.10.2024 13:30:03:145,1449,2,0,1,138817,108768,143070,35,-990,224
05.10.2024 13:30:03:149,1450,2,0,1,138817,108763,143070,37,-980,221
05.10.2024 13:30:03:153,1451,2,0,1,138811,108767,143073,35,-989,226
05.10.2024 13:30:03:157,1452,2,0,1,138817,108772,143081,37,-984,224
05.10.2024 13:30:03:161,1453,2,0,1,138824,108789,143073,33,-987,224
05.10.2024 13:30:03:165,1454,2,0,1,138820,108780,143083,38,-984,225
05.10.2024 13:30:03:169,1455,2,0,1,138826,108787,143084,37,-983,227
05.10.2024 13:30:03:173,1456,2,0,1,138824,108782,143088,37,-988,224
05.10.2024 13:30:03:177,1457,2,0,1,138827,108786,143089,36,-986,225
05.10.2024 13:30:03:181,1458,2,0,1,138826,108791,143085,35,-986,224
05.10.2024 13:30:03:184,1459,2,0,1,138830,108801,143087,39,-986,228
05.10.2024 13:30:03:188,1460,2,0,1,138826,108804,143087,35,-987,220
05.10.2024 13:30:03:192,1461,2,0,1,138829,108803,143087,35,-988,226
05.10.2024 13:30:03:196,1462,2,0,1,138828,108812,143095,38,-987,224
05.10.2024 13:30:03:200,1463,2,0,1,138832,108829,143100,34,-989,226
05.10.2024 13:30:03:204,1464,2,0,1,138838,108825,143104,40,-985,221
05.10.2024 13:30:03:208,1465,2,0,1,138838,108826,143109,33,-986,223
05.10.2024 13:30:03:212,1466,2,0,1,138835,108841,143103,34,-987,228
05.10.2024 13:30:03:216,1467,2,0,1,138840,108849,143109,32,-984,226
05.10.2024 13:30:03:220,1468,2,0,1,138841,108848,143114,35,-985,225
05.10.2024 13:30:03:223,1469,2,0,1,138841,108859,143113,39,-987,224
05.10.2024 13:30:03:227,1470,2,0,1,138849,108858,143112,37,-986,226
05.10.2024 13:30:03:231,1471,2,0,1,138841,108868,143115,40,-987,221
05.10.2024 13:30:03:235,1472,2,0,1,138842,108881,143116,36,-985,225
05.10.2024 13:30:03:239,1473,2,0,1,138849,108871,143114,40,-989,224
05.10.2024 13:30:03:243,1474,2,0,1,138851,108885,143125,31,-984,223
05.10.2024 13:30:03:247,1475,2,0,1,138852,108892,143129,37,-985,224
05.10.2024 13:30:03:251,1476,2,0,1,138849,108902,143131,33,-989,229
05.10.2024 13:30:03:255,1477,2,0,1,138851,108903,143130,40,-988,224
05.10.2024 13:30:03:259,1478,2,0,1,138851,108911,143135,38,-988,229
05.10.2024 13:30:03:262,1479,2,0,1,138854,108916,143131,35,-988,223
05.10.2024 13:30:03:266,1480,2,0,1,138856,108923,143138,40,-985,226
05.10.2024 13:30:03:270,1481,2,0,1,138859,108924,143137,37,-987,226
05.10.2024 13:30:03:274,1482,2,0,1,138854,108930,143139,37,-984,226
05.10.2024 13:30:03:278,1483,2,0,1,138857,108937,143142,34,-985,230
05.10.2024 13:30:03:282,1484,2,0,1,138861,108944,143143,37,-986,230
05.10.2024 13:30:03:286,1485,2,0,1,138865,108950,143151,35,-985,223
05.10.2024 13:30:03:290,1486,2,0,1,138863,108965,143149,35,-990,227
05.10.2024 13:30:03:294,1487,2,0,1,138866,108966,143154,33,-982,230
05.10.2024 13:30:03:298,1488,2,0,1,138862,108970,143157,37,-984,226
05.10.2024 13:30:03:301,1489,2,0,1,138869,108975,143151,38,-990,225
05.10.2024 13:30:03:305,1490,2,0,1,138869,108985,143150,35,-985,226
05.10.2024 13:30:03:309,1491,2,0,1,138875,108984,143156,36,-987,222
05.10.2024 13:30:03:313,1492,2,0,1,138875,108986,143159,30,-987,220
05.10.2024 13:30:03:317,1493,2,0,1,138873,108996,143153,35,-988,223
05.10.2024 13:30:03:321,1494,2,0,1,138880,109008,143157,35,-985,222
05.10.2024 13:30:03:325,1495,2,0,1,138878,109023,143164,38,-984,226
05.10.2024 13:30:03:329,1496,2,0,1,138876,109025,143162,40,-985,222
05.10.2024 13:30:03:333,1497,2,0,1,138880,109024,143168,38,-985,226
05.10.2024 13:30:03:337,1498,2,0,1,138875,109036,143169,38,-984,224
05.10.2024 13:30:03:340,1499,2,0,1,138880,109040,143170,34,-986,224
05.10.2024 13:30:03:344,1500,2,0,1,138879,109048,143177,37,-987,224
05.10.2024 13:30:03:348,1501,2,0,1,138880,109056,143171,31,-989,227
05.10.2024 13:30:03:352,1502,2,0,1,138881,109067,143167,39,-988,225
05.10.2024 13:30:03:356,1503,2,0,1,138888,109068,143176,34,-990,227
05.10.2024 13:30:03:360,1504,2,0,1,138887,109075,143182,38,-986,223
05.10.2024 13:30:03:364,1505,2,0,1,138886,109086,143184,37,-986,223
05.10.2024 13:30:03:368,1506,2,0,1,138891,109093,143182,36,-992,222
05.10.2024 13:30:03:372,1507,2,0,1,138892,109099,143183,38,-988,225
05.10.2024 13:30:03:376,1508,2,0,1,138894,109102,143184,35,-989,226
05.10.2024 13:30:03:379,1509,2,0,1,138897,109108,143191,33,-989,224
05.10.2024 13:30:03:383,1510,2,0,1,138897,109106,143187,39,-989,225
05.10.2024 13:30:03:387,1511,2,0,1,138898,109122,143188,36,-993,223
05.10.2024 13:30:03:391,1512,2,0,1,138898,109131,143193,34,-990,223
05.10.2024 13:30:03:395,1513,2,0,1,138897,109136,143191,34,-993,224
05.10.2024 13:30:03:399,1514,2,0,1,138902,109137,143193,34,-992,230
05.10.2024 13:30:03:403,1515,2,0,1,138903,109140,143200,34,-988,222
05.10.2024 13:30:03:407,1516,2,0,1,138896,109151,143196,32,-989,224
05.10.2024 13:30:03:411,1517,2,0,1,138910,109141,143200,35,-988,222
05.10.2024 13:30:03:415,1518,2,0,1,138907,109167,143208,40,-988,224
05.10.2024 13:30:03:418,1519,2,0,1,138912,109160,143211,35,-988,221
05.10.2024 13:30:03:422,1520,2,0,1,138912,109168,143210,34,-991,222
05.10.2024 13:30:03:426,1521,2,0,1,138909,109184,143213,34,-985,218
05.10.2024 13:30:03:430,1522,2,0,1,138912,109183,143212,30,-982,225
05.10.2024 13:30:03:434,1523,2,0,1,138910,109197,143215,35,-985,227
05.10.2024 13:30:03:438,1524,2,0,1,138913,109202,143214,31,-988,224
05.10.2024 13:30:03:442,1525,2,0,1,138919,109201,143209,34,-985,220
05.10.2024 13:30:03:446,1526,2,0,1,138916,109211,143220,33,-988,225
05.10.2024 13:30:03:450,1527,2,0,1,138918,109207,143216,34,-986,226
05.10.2024 13:30:03:454,1528,2,0,1,138925,109220,143222,35,-987,225
05.10.2024 13:30:03:457,1529,2,0,1,138923,109230,143224,35,-984,227
05.10.2024 13:30:03:461,1530,2,0,1,138921,109231,143229,33,-987,227
05.10.2024 13:30:03:465,1531,2,0,1,138923,109233,143229,36,-983,224
05.10.2024 13:30:03:469,1532,2,0,1,138924,109251,143231,33,-986,225
05.10.2024 13:30:03:473,1533,2,0,1,138929,109258,143231,33,-986,221
05.10.2024 13:30:03:477,1534,2,0,1,138931,109254,143238,35,-986,226
05.10.2024 13:30:03:481,1535,2,0,1,138936,109267,143242,33,-983,221
05.10.2024 13:30:03:485,1536,2,0,1,138929,109276,143245,35,-986,220
05.10.2024 13:30:03:489,1537,2,0,1,138940,109287,143248,33,-981,224
05.10.2024 13:30:03:493,1538,2,0,1,138941,109285,143252,34,-991,222
05.10.2024 13:30:03:496,1539,2,0,1,138938,109296,143244,33,-986,219
05.10.2024 13:30:03:500,1540,2,0,1,138934,109315,143251,33,-985,223
05.10.2024 13:30:03:504,1541,2,0,1,138939,109310,143256,33,-985,229
05.10.2024 13:30:03:508,1542,2,0,1,138942,109307,143259,32,-986,229
05.10.2024 13:30:03:512,1543,2,0,1,138949,109325,143254,34,-986,225
05.10.2024 13:30:03:516,1544,2,0,1,138949,109332,143257,33,-987,224
05.10.2024 13:30:03:520,1545,2,0,1,138946,109337,143261,33,-984,228
05.10.2024 13:30:03:524,1546,2,0,1,138950,109357,143264,32,-987,226
05.10.2024 13:30:03:528,1547,2,0,1,138953,109362,143263,37,-989,228
05.10.2024 13:30:03:532,1548,2,0,1,138948,109369,143259,39,-990,225
05.10.2024 13:30:03:535,1549,2,0,1,138953,109373,143269,32,-987,229
05.10.2024 13:30:03:539,1550,2,0,1,138952,109377,143270,34,-987,220
05.10.2024 13:30:03:543,1551,2,0,1,138958,109399,143277,35,-990,222
05.10.2024 13:30:03:547,1552,2,0,1,138958,109401,143277,34,-990,227
05.10.2024 13:30:03:551,1553,2,0,1,138961,109409,143283,35,-988,229
05.10.2024 13:30:03:555,1554,2,0,1,138963,109413,143281,34,-988,227
05.10.2024 13:30:03:559,1555,2,0,1,138963,109420,143287,28,-987,229
05.10.2024 13:30:03:563,1556,2,0,1,138966,109435,143283,31,-990,228
05.10.2024 13:30:03:567,1557,2,0,1,138966,109442,143286,30,-985,227
05.10.2024 13:30:03:571,1558,2,0,1,138966,109451,143287,33,-989,227
05.10.2024 13:30:03:574,1559,2,0,1,138967,109463,143290,34,-987,231
05.10.2024 13:30:03:578,1560,2,0,1,138975,109461,143296,35,-986,222
05.10.2024 13:30:03:582,1561,2,0,1,138969,109465,143295,37,-988,224
05.10.2024 13:30:03:586,1562,2,0,1,138971,109481,143303,33,-992,225
05.10.2024 13:30:03:590,1563,2,0,1,138979,109486,143296,29,-988,225
05.10.2024 13:30:03:594,1564,2,0,1,138973,109496,143297,36,-986,223
05.10.2024 13:30:03:598,1565,2,0,1,138973,109502,143298,36,-985,226
05.10.2024 13:30:03:602,1566,2,0,1,138968,109498,143301,33,-986,228
05.10.2024 13:30:03:606,1567,2,0,1,138973,109510,143285,34,-985,226
05.10.2024 13:30:03:610,1568,2,0,1,138969,109503,143289,32,-987,224
05.10.2024 13:30:03:613,1569,2,0,1,138971,109491,143285,36,-989,222
05.10.2024 13:30:03:617,1570,2,0,1,138968,109493,143274,30,-991,221
05.10.2024 13:30:03:621,1571,2,0,1,138964,109490,143269,32,-988,227
05.10.2024 13:30:03:625,1572,2,0,1,138960,109473,143260,38,-989,221
05.10.2024 13:30:03:629,1573,2,0,1,138959,109454,143260,34,-990,224
05.10.2024 13:30:03:633,1574,2,0,1,138958,109450,143255,32,-991,227
05.10.2024 13:30:03:637,1575,2,0,1,138951,109420,143247,32,-990,222
05.10.2024 13:30:03:641,1576,2,0,1,138946,109412,143237,31,-986,219
05.10.2024 13:30:03:645,1577,2,0,1,138948,109387,143235,33,-987,226
05.10.2024 13:30:03:649,1578,2,0,1,138940,109365,143229,31,-980,221
05.10.2024 13:30:03:652,1579,2,0,1,138940,109340,143224,36,-986,223
05.10.2024 13:30:03:656,1580,2,0,1,138938,109313,143215,31,-981,224
05.10.2024 13:30:03:660,1581,2,0,1,138938,109293,143210,31,-986,216
05.10.2024 13:30:03:664,1582,2,0,1,138943,109258,143206,34,-982,220
05.10.2024 13:30:03:668,1583,2,0,1,138938,109242,143209,31,-986,221
05.10.2024 13:30:03:672,1584,2,0,1,138934,109221,143202,29,-988,220
05.10.2024 13:30:03:676,1585,2,0,1,138930,109202,143196,27,-990,220
05.10.2024 13:30:03:680,1586,2,0,1,138940,109173,143189,30,-989,221
05.10.2024 13:30:03:684,1587,2,0,1,138928,109148,143184,32,-989,216
05.10.2024 13:30:03:688,1588,2,0,1,138931,109135,143187,34,-988,226
05.10.2024 13:30:03:691,1589,2,0,1,138927,109109,143184,29,-984,220
05.10.2024 13:30:03:695,1590,2,0,1,138929,109095,143181,31,-985,224
05.10.2024 13:30:03:699,1591,2,0,1,138930,109083,143177,33,-990,220
05.10.2024 13:30:03:703,1592,2,0,1,138931,109072,143184,35,-988,218
05.10.2024 13:30:03:707,1593,2,0,1,138925,109056,143175,31,-990,220
05.10.2024 13:30:03:711,1594,2,0,1,138930,109042,143171,36,-987,224
05.10.2024 13:30:03:715,1595,2,0,1,138934,109026,143178,32,-992,223
05.10.2024 13:30:03:719,1596,2,0,1,138932,109018,143175,38,-989,223
05.10.2024 13:30:03:723,1597,2,0,1,138927,109008,143179,31,-985,223
05.10.2024 13:30:03:727,1598,2,0,1,138925,108995,143173,34,-991,219
05.10.2024 13:30:03:730,1599,2,0,1,138930,108985,143176,35,-991,222
05.10.2024 13:30:03:734,1600,2,0,1,138928,108977,143176,33,-994,225
05.10.2024 13:30:03:738,1601,2,0,1,138930,108986,143178,31,-988,224
05.10.2024 13:30:03:742,1602,2,0,1,138926,108983,143175,32,-990,223
05.10.2024 13:30:03:746,1603,2,0,1,138927,108964,143176,32,-988,221
05.10.2024 13:30:03:750,1604,2,0,1,138928,108967,143178,32,-986,222
05.10.2024 13:30:03:754,1605,2,0,1,138931,108962,143178,32,-989,224
05.10.2024 13:30:03:758,1606,2,0,1,138928,108956,143178,28,-986,225
05.10.2024 13:30:03:762,1607,2,0,1,138930,108961,143178,33,-987,223
05.10.2024 13:30:03:766,1608,2,0,1,138935,108961,143182,32,-992,223
05.10.2024 13:30:03:769,1609,2,0,1,138932,108957,143180,33,-987,223
05.10.2024 13:30:03:773,1610,2,0,1,138925,108950,143177,35,-992,223
05.10.2024 13:30:03:777,1611,2,0,1,138935,108954,143179,32,-987,223
05.10.2024 13:30:03:781,1612,2,0,1,138942,108943,143182,34,-988,220
05.10.2024 13:30:03:785,1613,2,0,1,138937,108952,143186,32,-986,220
05.10.2024 13:30:03:789,1614,2,0,1,138940,108952,143181,34,-984,222
05.10.2024 13:30:03:793,1615,2,0,1,138939,108957,143182,28,-990,222
05.10.2024 13:30:03:797,1616,2,0,1,138937,108956,143188,34,-987,223
05.10.2024 13:30:03:801,1617,2,0,1,138936,108966,143184,32,-987,219
05.10.2024 13:30:03:805,1618,2,0,1,138934,108967,143184,35,-987,219
05.10.2024 13:30:03:808,1619,2,0,1,138940,108967,143192,34,-989,222
05.10.2024 13:30:03:812,1620,2,0,1,138940,108968,143191,31,-984,219
05.10.2024 13:30:03:816,1621,2,0,1,138945,108964,143191,34,-987,219
05.10.2024 13:30:03:820,1622,2,0,1,138943,108972,143195,32,-987,226
05.10.2024 13:30:03:824,1623,2,0,1,138942,108969,143198,30,-986,224
05.10.2024 13:30:03:828,1624,2,0,1,138944,108976,143195,33,-985,224
05.10.2024 13:30:03:832,1625,2,0,1,138950,108979,143198,39,-988,225
05.10.2024 13:30:03:836,1626,2,0,1,138948,108985,143201,31,-984,225
05.10.2024 13:30:03:840,1627,2,0,1,138949,108982,143202,27,-982,228
05.10.2024 13:30:03:844,1628,2,0,1,138952,108988,143209,33,-981,224
05.10.2024 13:30:03:847,1629,2,0,1,138950,108999,143204,32,-985,223
05.10.2024 13:30:03:851,1630,2,0,1,138957,109008,143216,29,-986,228
05.10.2024 13:30:03:855,1631,2,0,1,138957,109000,143209,31,-986,232
05.10.2024 13:30:03:859,1632,2,0,1,138959,109016,143215,32,-985,225
05.10.2024 13:30:03:863,1633,2,0,1,138962,109020,143209,34,-988,224
05.10.2024 13:30:03:867,1634,2,0,1,138960,109025,143216,35,-988,222
05.10.2024 13:30:03:871,1635,2,0,1,138963,109027,143217,36,-989,223
05.10.2024 13:30:03:875,1636,2,0,1,138964,109037,143219,32,-990,222
05.10.2024 13:30:03:879,1637,2,0,1,138960,109046,143222,34,-991,223
05.10.2024 13:30:03:883,1638,2,0,1,138963,109051,143218,32,-989,219
05.10.2024 13:30:03:886,1639,2,0,1,138963,109053,143221,34,-985,223
05.10.2024 13:30:03:890,1640,2,0,1,138963,109049,143226,29,-992,221
05.10.2024 13:30:03:894,1641,2,0,1,138968,109053,143222,32,-989,219
05.10.2024 13:30:03:898,1642,2,0,1,138968,109058,143222,34,-992,220
05.10.2024 13:30:03:902,1643,2,0,1,138966,109059,143224,33,-993,214
05.10.2024 13:30:03:906,1644,2,0,1,138965,109063,143217,33,-994,219
05.10.2024 13:30:03:910,1645,2,0,1,138967,109054,143222,32,-988,222
05.10.2024 13:30:03:914,1646,2,0,1,138964,109063,143227,31,-990,221
05.10.2024 13:30:03:918,1647,2,0,1,138964,109059,143222,29,-989,222
05.10.2024 13:30:03:922,1648,2,0,1,138972,109066,143223,32,-988,225
05.10.2024 13:30:03:925,1649,2,0,1,138965,109058,143223,34,-997,221
05.10.2024 13:30:03:929,1650,2,0,1,138968,109060,143225,32,-984,223
05.10.2024 13:30:03:933,1651,2,0,1,138963,109060,143235,33,-992,226
05.10.2024 13:30:03:937,1652,2,0,1,138967,109065,143224,33,-989,222
05.10.2024 13:30:03:941,1653,2,0,1,138962,109066,143219,30,-986,221
05.10.2024 13:30:03:945,1654,2,0,1,138970,109062,143220,30,-987,219
05.10.2024 13:30:03:949,1655,2,0,1,138966,109069,143220,32,-991,215
05.10.2024 13:30:03:953,1656,2,0,1,138967,109072,143221,34,-988,218
05.10.2024 13:30:03:957,1657,2,0,1,138962,109057,143219,32,-988,221
05.10.2024 13:30:03:961,1658,2,0,1,138961,109063,143219,33,-984,219
05.10.2024 13:30:03:964,1659,2,0,1,138958,109065,143222,37,-987,221
05.10.2024 13:30:03:968,1660,2,0,1,138962,109074,143223,34,-986,221
05.10.2024 13:30:03:972,1661,2,0,1,138962,109068,143222,33,-986,225
05.10.2024 13:30:03:976,1662,2,0,1,138968,109069,143230,30,-989,218
05.10.2024 13:30:03:980,1663,2,0,1,138963,109074,143220,34,-985,223
05.10.2024 13:30:03:984,1664,2,0,1,138965,109066,143221,32,-985,221
05.10.2024 13:30:03:988,1665,2,0,1,138962,109064,143224,36,-986,220
05.10.2024 13:30:03:992,1666,2,0,1,138964,109064,143224,38,-989,221
05.10.2024 13:30:03:996,1667,2,0,1,138966,109061,143226,37,-990,221
05.10.2024 13:30:04:0,1668,2,0,1,138965,109074,143224,36,-985,225
05.10.2024 13:30:04:3,1669,2,0,1,138962,109078,143229,36,-982,219
05.10.2024 13:30:04:7,1670,2,0,1,138967,109074,143231,35,-987,219
05.10.2024 13:30:04:11,1671,2,0,1,138963,109077,143228,31,-984,225
05.10.2024 13:30:04:15,1672,2,0,1,138971,109081,143235,34,-986,224
05.10.2024 13:30:04:19,1673,2,0,1,138970,109069,143231,35,-987,221
05.10.2024 13:30:04:23,1674,2,0,1,138970,109082,143226,34,-984,226
05.10.2024 13:30:04:27,1675,2,0,1,138972,109093,143235,36,-986,225
05.10.2024 13:30:04:31,1676,2,0,1,138971,109087,143234,33,-984,227
05.10.2024 13:30:04:35,1677,2,0,1,138974,109099,143235,35,-989,221
05.10.2024 13:30:04:39,1678,2,0,1,138971,109101,143232,32,-993,224
05.10.2024 13:30:04:42,1679,2,0,1,138971,109109,143238,34,-989,223
05.10.2024 13:30:04:46,1680,2,0,1,138973,109111,143240,31,-987,222
05.10.2024 13:30:04:50,1681,2,0,1,138976,109126,143238,30,-986,222
05.10.2024 13:30:04:54,1682,2,0,1,138970,109119,143237,31,-986,219
05.10.2024 13:30:04:58,1683,2,0,1,138974,109128,143243,35,-989,222
05.10.2024 13:30:04:62,1684,2,0,1,138974,109129,143248,36,-988,222
05.10.2024 13:30:04:66,1685,2,0,1,138976,109134,143249,34,-990,226
05.10.2024 13:30:04:70,1686,2,0,1,138975,109140,143248,33,-988,222
05.10.2024 13:30:04:74,1687,2,0,1,138977,109151,143246,31,-988,222
05.10.2024 13:30:04:78,1688,2,0,1,138977,109156,143246,34,-993,226
05.10.2024 13:30:04:81,1689,2,0,1,138972,109168,143254,32,-991,218
05.10.2024 13:30:04:85,1690,2,0,1,138978,109168,143257,32,-986,222
05.10.2024 13:30:04:89,1691,2,0,1,138977,109173,143253,36,-989,224
05.10.2024 13:30:04:93,1692,2,0,1,138974,109179,143250,31,-985,216
05.10.2024 13:30:04:97,1693,2,0,1,138985,109191,143262,34,-986,221
05.10.2024 13:30:04:101,1694,2,0,1,138978,109191,143263,36,-991,219
05.10.2024 13:30:04:105,1695,2,0,1,138976,109202,143262,33,-990,222
05.10.2024 13:30:04:109,1696,2,0,1,138982,109207,143266,33,-989,221
05.10.2024 13:30:04:113,1697,2,0,1,138990,109213,143265,33,-986,218
05.10.2024 13:30:04:117,1698,2,0,1,138987,109222,143264,34,-987,223
05.10.2024 13:30:04:120,1699,2,0,1,138981,109232,143275,31,-987,227
05.10.2024 13:30:04:124,1700,2,0,1,138983,109234,143276,33,-989,224
05.10.2024 13:30:04:128,1701,2,0,1,138985,109248,143279,32,-990,224
05.10.2024 13:30:04:132,1702,2,0,1,138986,109262,143275,34,-990,223
05.10.2024 13:30:04:136,1703,2,0,1,138989,109258,143266,33,-990,225
05.10.2024 13:30:04:140,1704,2,0,1,138987,109270,143281,32,-985,222
05.10.2024 13:30:04:144,1705,2,0,1,138990,109273,143276,34,-992,223
05.10.2024 13:30:04:148,1706,2,0,1,138984,109283,143279,34,-990,222
05.10.2024 13:30:04:152,1707,2,0,1,138985,109283,143281,39,-984,228
05.10.2024 13:30:04:156,1708,2,0,1,138994,109296,143285,33,-987,222
05.10.2024 13:30:04:159,1709,2,0,1,138989,109308,143284,33,-986,228
05.10.2024 13:30:04:163,1710,2,0,1,138994,109319,143283,32,-983,219
05.10.2024 13:30:04:167,1711,2,0,1,139001,109323,143284,31,-986,227
05.10.2024 13:30:04:171,1712,2,0,1,138998,109329,143290,33,-989,227
05.10.2024 13:30:04:175,1713,2,0,1,138997,109337,143292,32,-987,224
05.10.2024 13:30:04:179,1714,2,0,1,138994,109360,143295,33,-987,220
05.10.2024 13:30:04:183,1715,2,0,1,138998,109342,143291,28,-986,225
05.10.2024 13:30:04:187,1716,2,0,1,138998,109363,143295,33,-989,222
05.10.2024 13:30:04:191,1717,2,0,1,138999,109366,143299,29,-986,224
05.10.2024 13:30:04:195,1718,2,0,1,138998,109365,143305,34,-989,227
05.10.2024 13:30:04:198,1719,2,0,1,138997,109377,143300,34,-988,222
05.10.2024 13:30:04:202,1720,2,0,1,139005,109397,143304,33,-989,221
05.10.2024 13:30:04:206,1721,2,0,1,139002,109409,143304,35,-985,222
05.10.2024 13:30:04:210,1722,2,0,1,139005,109409,143299,30,-991,223
05.10.2024 13:30:04:214,1723,2,0,1,139001,109411,143310,33,-989,221
05.10.2024 13:30:04:218,1724,2,0,1,139005,109417,143308,34,-987,222
05.10.2024 13:30:04:222,1725,2,0,1,139006,109424,143320,33,-985,226
05.10.2024 13:30:04:226,1726,2,0,1,139006,109435,143308,33,-983,225
05.10.2024 13:30:04:230,1727,2,0,1,139009,109440,143316,37,-988,221
05.10.2024 13:30:04:234,1728,2,0,1,139010,109449,143314,34,-992,223
05.10.2024 13:30:04:237,1729,2,0,1,139013,109450,143317,31,-987,220
05.10.2024 13:30:04:241,1730,2,0,1,139011,109463,143325,34,-984,221
05.10.2024 13:30:04:245,1731,2,0,1,139009,109465,143323,33,-987,225
05.10.2024 13:30:04:249,1732,2,0,1,139015,109479,143324,33,-985,216
05.10.2024 13:30:04:253,1733,2,0,1,139014,109474,143320,28,-988,225
05.10.2024 13:30:04:257,1734,2,0,1,139015,109486,143328,26,-984,219
05.10.2024 13:30:04:261,1735,2,0,1,139021,109491,143326,34,-989,220
05.10.2024 13:30:04:265,1736,2,0,1,139019,109507,143328,34,-991,226
05.10.2024 13:30:04:269,1737,2,0,1,139017,109507,143332,36,-990,221
05.10.2024 13:30:04:273,1738,2,0,1,139021,109524,143327,28,-990,219
05.10.2024 13:30:04:276,1739,2,0,1,139013,109525,143333,34,-986,222
05.10.2024 13:30:04:280,1740,2,0,1,139016,109535,143335,35,-991,223
05.10.2024 13:30:04:284,1741,2,0,1,139014,109549,143332,32,-988,225
05.10.2024 13:30:04:288,1742,2,0,1,139025,109551,143335,36,-989,227
05.10.2024 13:30:04:292,1743,2,0,1,139012,109558,143342,30,-986,223
05.10.2024 13:30:04:296,1744,2,0,1,139028,109556,143341,32,-990,222
05.10.2024 13:30:04:300,1745,2,0,1,139025,109575,143342,32,-990,222
05.10.2024 13:30:04:304,1746,2,0,1,139031,109575,143342,30,-987,220
05.10.2024 13:30:04:308,1747,2,0,1,139023,109580,143341,33,-984,225
05.10.2024 13:30:04:312,1748,2,0,1,139027,109590,143345,31,-991,222
05.10.2024 13:30:04:315,1749,2,0,1,139028,109594,143348,31,-990,222
05.10.2024 13:30:04:319,1750,2,0,1,139032,109611,143347,30,-983,222
05.10.2024 13:30:04:323,1751,2,0,1,139026,109614,143345,27,-987,222
05.10.2024 13:30:04:327,1752,2,0,1,139025,109626,143357,36,-986,219
05.10.2024 13:30:04:331,1753,2,0,1,139031,109629,143352,33,-988,226
05.10.2024 13:30:04:335,1754,2,0,1,139037,109640,143359,34,-988,223
05.10.2024 13:30:04:339,1755,2,0,1,139031,109646,143360,33,-987,227
05.10.2024 13:30:04:343,1756,2,0,1,139035,109655,143365,34,-990,225
05.10.2024 13:30:04:347,1757,2,0,1,139036,109658,143368,36,-989,224
05.10.2024 13:30:04:351,1758,2,0,1,139041,109670,143364,30,-984,223
05.10.2024 13:30:04:354,1759,2,0,1,139037,109670,143364,33,-984,220
05.10.2024 13:30:04:358,1760,2,0,1,139036,109683,143373,27,-987,221
05.10.2024 13:30:04:362,1761,2,0,1,139048,109690,143368,30,-983,221
05.10.2024 13:30:04:366,1762,2,0,1,139045,109698,143374,31,-989,226
05.10.2024 13:30:04:370,1763,2,0,1,139043,109713,143369,34,-988,222
05.10.2024 13:30:04:374,1764,2,0,1,139037,109714,143375,33,-988,218
05.10.2024 13:30:04:378,1765,2,0,1,139044,109724,143382,34,-990,219
05.10.2024 13:30:04:382,1766,2,0,1,139043,109733,143381,30,-991,219
05.10.2024 13:30:04:386,1767,2,0,1,139048,109749,143386,31,-987,220
05.10.2024 13:30:04:390,1768,2,0,1,139047,109749,143391,32,-984,220
05.10.2024 13:30:04:393,1769,2,0,1,139044,109759,143383,34,-987,217
05.10.2024 13:30:04:397,1770,2,0,1,139050,109756,143389,33,-989,219
05.10.2024 13:30:04:401,1771,2,0,1,139054,109768,143392,28,-988,223
05.10.2024 13:30:04:405,1772,2,0,1,139048,109779,143394,29,-986,220
05.10.2024 13:30:04:409,1773,2,0,1,139055,109789,143394,34,-993,226
05.10.2024 13:30:04:413,1774,2,0,1,139052,109786,143398,29,-985,224
05.10.2024 13:30:04:417,1775,2,0,1,139054,109799,143400,34,-982,224
05.10.2024 13:30:04:421,1776,2,0,1,139055,109813,143396,32,-984,224
05.10.2024 13:30:04:425,1777,2,0,1,139049,109821,143398,36,-983,224
05.10.2024 13:30:04:429,1778,2,0,1,139056,109830,143402,34,-985,220
05.10.2024 13:30:04:432,1779,2,0,1,139057,109834,143402,35,-985,225
05.10.2024 13:30:04:436,1780,2,0,1,139059,109848,143407,33,-986,224
05.10.2024 13:30:04:440,1781,2,0,1,139064,109855,143407,33,-989,216
