Timestamp[Day.Month.Year Hour:Minute:Second:Milisecond],sampleNum,tagLEDC1_PD1,tagLEDC2_PD1,tagLEDC3_PD1,LED1_PPG1,LED2_PPG1,LED3_PPG1,ACC_X[mg],ACC_Y[mg],ACC_Z[mg]
05.10.2024 20:27:23:300,1,0,1,2,56305,93083,63334,-70,-228,969
05.10.2024 20:27:23:304,2,0,1,2,56303,93072,63338,-69,-231,971
05.10.2024 20:27:23:308,3,0,1,2,56298,93070,63337,-73,-225,971
05.10.2024 20:27:23:312,4,0,1,2,56299,93052,63333,-68,-226,973
05.10.2024 20:27:23:316,5,0,1,2,56296,93054,63330,-69,-226,971
05.10.2024 20:27:23:320,6,0,1,2,56294,93037,63333,-66,-234,969
05.10.2024 20:27:23:324,7,0,1,2,56299,93028,63333,-71,-232,968
05.10.2024 20:27:23:328,8,0,1,2,56292,93024,63332,-65,-232,973
05.10.2024 20:27:23:332,9,0,1,2,56293,93013,63332,-70,-225,962
05.10.2024 20:27:23:336,10,0,1,2,56292,93007,63333,-67,-225,974
05.10.2024 20:27:23:339,11,0,1,2,56289,93002,63326,-65,-232,969
05.10.2024 20:27:23:343,12,0,1,2,56288,92999,63331,-64,-227,971
05.10.2024 20:27:23:347,13,0,1,2,56282,92992,63326,-69,-233,969
05.10.2024 20:27:23:351,14,0,1,2,56280,92985,63326,-65,-231,971
05.10.2024 20:27:23:355,15,0,1,2,56285,92979,63329,-66,-231,970
05.10.2024 20:27:23:359,16,0,1,2,56286,92976,63325,-67,-232,973
05.10.2024 20:27:23:363,17,0,1,2,56284,92969,63325,-66,-227,966
05.10.2024 20:27:23:367,18,0,1,2,56288,92962,63329,-66,-232,970
05.10.2024 20:27:23:371,19,0,1,2,56287,92958,63327,-65,-234,969
05.10.2024 20:27:23:375,20,0,1,2,56283,92953,63327,-64,-228,966
05.10.2024 20:27:23:378,21,0,1,2,56290,92948,63326,-65,-231,970
05.10.2024 20:27:23:382,22,0,1,2,56290,92939,63329,-72,-233,966
05.10.2024 20:27:23:386,23,0,1,2,56292,92932,63326,-66,-233,971
05.10.2024 20:27:23:390,24,0,1,2,56296,92933,63328,-63,-234,969
05.10.2024 20:27:23:394,25,0,1,2,56301,92927,63328,-71,-233,966
05.10.2024 20:27:23:398,26,0,1,2,56302,92925,63325,-67,-234,970
05.10.2024 20:27:23:402,27,0,1,2,56300,92926,63320,-65,-232,971
05.10.2024 20:27:23:406,28,0,1,2,56304,92918,63321,-69,-231,968
05.10.2024 20:27:23:410,29,0,1,2,56298,92919,63326,-65,-229,966
05.10.2024 20:27:23:414,30,0,1,2,56314,92915,63329,-67,-230,968
05.10.2024 20:27:23:417,31,0,1,2,56305,92911,63325,-69,-225,967
05.10.2024 20:27:23:421,32,0,1,2,56309,92907,63328,-67,-229,967
05.10.2024 20:27:23:425,33,0,1,2,56320,92908,63325,-67,-227,972
05.10.2024 20:27:23:429,34,0,1,2,56317,92906,63322,-69,-232,969
05.10.2024 20:27:23:433,35,0,1,2,56318,92901,63329,-64,-229,970
05.10.2024 20:27:23:437,36,0,1,2,56316,92898,63322,-70,-228,966
05.10.2024 20:27:23:441,37,0,1,2,56325,92892,63324,-66,-230,966
05.10.2024 20:27:23:445,38,0,1,2,56324,92887,63320,-71,-233,969
05.10.2024 20:27:23:449,39,0,1,2,56324,92886,63321,-67,-226,964
05.10.2024 20:27:23:453,40,0,1,2,56325,92886,63325,-70,-232,966
05.10.2024 20:27:23:457,41,0,1,2,56329,92871,63321,-69,-227,976
05.10.2024 20:27:23:460,42,0,1,2,56326,92869,63320,-67,-232,967
05.10.2024 20:27:23:464,43,0,1,2,56320,92874,63317,-65,-238,968
05.10.2024 20:27:23:468,44,0,1,2,56333,92871,63316,-69,-235,966
05.10.2024 20:27:23:472,45,0,1,2,56332,92867,63321,-71,-235,970
05.10.2024 20:27:23:476,46,0,1,2,56335,92865,63315,-70,-231,965
05.10.2024 20:27:23:480,47,0,1,2,56334,92863,63315,-69,-232,966
05.10.2024 20:27:23:484,48,0,1,2,56336,92862,63321,-73,-230,973
05.10.2024 20:27:23:488,49,0,1,2,56343,92850,63322,-69,-225,972
05.10.2024 20:27:23:492,50,0,1,2,56344,92858,63317,-68,-226,970
05.10.2024 20:27:23:496,51,0,1,2,56341,92854,63315,-68,-231,975
05.10.2024 20:27:23:499,52,0,1,2,56348,92855,63318,-64,-232,965
05.10.2024 20:27:23:503,53,0,1,2,56345,92844,63314,-69,-226,973
05.10.2024 20:27:23:507,54,0,1,2,56347,92850,63318,-64,-231,970
05.10.2024 20:27:23:511,55,0,1,2,56349,92846,63313,-70,-232,968
05.10.2024 20:27:23:515,56,0,1,2,56345,92845,63320,-69,-228,970
05.10.2024 20:27:23:519,57,0,1,2,56349,92839,63314,-66,-231,972
05.10.2024 20:27:23:523,58,0,1,2,56353,92840,63319,-60,-228,970
05.10.2024 20:27:23:527,59,0,1,2,56351,92838,63317,-58,-234,970
05.10.2024 20:27:23:531,60,0,1,2,56349,92839,63315,-61,-231,965
05.10.2024 20:27:23:535,61,0,1,2,56357,92833,63317,-61,-227,966
05.10.2024 20:27:23:538,62,0,1,2,56356,92839,63319,-64,-230,975
05.10.2024 20:27:23:542,63,0,1,2,56365,92832,63319,-67,-229,973
05.10.2024 20:27:23:546,64,0,1,2,56362,92841,63318,-61,-228,973
05.10.2024 20:27:23:550,65,0,1,2,56364,92837,63321,-67,-231,968
05.10.2024 20:27:23:554,66,0,1,2,56359,92829,63319,-69,-230,971
05.10.2024 20:27:23:558,67,0,1,2,56363,92835,63324,-68,-224,968
05.10.2024 20:27:23:562,68,0,1,2,56365,92830,63321,-73,-232,968
05.10.2024 20:27:23:566,69,0,1,2,56368,92829,63323,-68,-225,967
05.10.2024 20:27:23:570,70,0,1,2,56375,92824,63321,-65,-228,967
05.10.2024 20:27:23:574,71,0,1,2,56372,92827,63315,-66,-230,964
05.10.2024 20:27:23:577,72,0,1,2,56377,92828,63318,-72,-232,972
05.10.2024 20:27:23:581,73,0,1,2,56385,92827,63321,-68,-228,967
05.10.2024 20:27:23:585,74,0,1,2,56385,92825,63320,-70,-230,972
05.10.2024 20:27:23:589,75,0,1,2,56382,92825,63320,-67,-229,975
05.10.2024 20:27:23:593,76,0,1,2,56384,92823,63320,-65,-231,976
05.10.2024 20:27:23:597,77,0,1,2,56381,92818,63321,-67,-232,975
05.10.2024 20:27:23:601,78,0,1,2,56384,92818,63320,-73,-229,972
05.10.2024 20:27:23:605,79,0,1,2,56388,92818,63316,-66,-231,974
05.10.2024 20:27:23:609,80,0,1,2,56388,92816,63319,-65,-228,970
05.10.2024 20:27:23:613,81,0,1,2,56389,92811,63318,-70,-228,969
05.10.2024 20:27:23:617,82,0,1,2,56395,92809,63317,-66,-230,963
05.10.2024 20:27:23:620,83,0,1,2,56393,92806,63312,-65,-224,970
05.10.2024 20:27:23:624,84,0,1,2,56396,92806,63313,-69,-229,972
05.10.2024 20:27:23:628,85,0,1,2,56401,92804,63314,-69,-224,966
05.10.2024 20:27:23:632,86,0,1,2,56405,92800,63309,-64,-226,969
05.10.2024 20:27:23:636,87,0,1,2,56403,92796,63304,-63,-226,968
05.10.2024 20:27:23:640,88,0,1,2,56409,92792,63306,-65,-227,973
05.10.2024 20:27:23:644,89,0,1,2,56401,92788,63303,-69,-228,969
05.10.2024 20:27:23:648,90,0,1,2,56407,92783,63297,-67,-233,975
05.10.2024 20:27:23:652,91,0,1,2,56401,92786,63296,-69,-231,970
05.10.2024 20:27:23:656,92,0,1,2,56396,92776,63296,-64,-236,972
05.10.2024 20:27:23:659,93,0,1,2,56402,92771,63290,-68,-232,972
05.10.2024 20:27:23:663,94,0,1,2,56394,92769,63285,-68,-238,969
05.10.2024 20:27:23:667,95,0,1,2,56393,92763,63286,-69,-236,968
05.10.2024 20:27:23:671,96,0,1,2,56382,92754,63282,-66,-236,968
05.10.2024 20:27:23:675,97,0,1,2,56380,92756,63286,-70,-235,961
05.10.2024 20:27:23:679,98,0,1,2,56370,92756,63286,-66,-231,972
05.10.2024 20:27:23:683,99,0,1,2,56359,92753,63287,-72,-235,968
05.10.2024 20:27:23:687,100,0,1,2,56351,92751,63286,-63,-234,970
05.10.2024 20:27:23:691,101,0,1,2,56339,92748,63283,-65,-229,971
05.10.2024 20:27:23:695,102,0,1,2,56329,92750,63283,-69,-236,969
05.10.2024 20:27:23:698,103,0,1,2,56319,92742,63285,-67,-228,966
05.10.2024 20:27:23:702,104,0,1,2,56312,92745,63285,-70,-235,970
05.10.2024 20:27:23:706,105,0,1,2,56301,92744,63283,-71,-231,966
05.10.2024 20:27:23:710,106,0,1,2,56295,92746,63286,-66,-228,969
05.10.2024 20:27:23:714,107,0,1,2,56286,92737,63289,-65,-227,972
05.10.2024 20:27:23:718,108,0,1,2,56274,92738,63287,-67,-223,970
05.10.2024 20:27:23:722,109,0,1,2,56269,92736,63290,-69,-226,966
05.10.2024 20:27:23:726,110,0,1,2,56267,92732,63287,-66,-229,966
05.10.2024 20:27:23:730,111,0,1,2,56252,92726,63288,-65,-230,972
05.10.2024 20:27:23:734,112,0,1,2,56245,92730,63287,-65,-232,969
05.10.2024 20:27:23:737,113,0,1,2,56237,92728,63287,-70,-227,969
05.10.2024 20:27:23:741,114,0,1,2,56231,92719,63289,-67,-227,973
05.10.2024 20:27:23:745,115,0,1,2,56227,92725,63285,-70,-227,971
05.10.2024 20:27:23:749,116,0,1,2,56225,92719,63286,-66,-222,966
05.10.2024 20:27:23:753,117,0,1,2,56226,92715,63283,-68,-229,970
05.10.2024 20:27:23:757,118,0,1,2,56221,92718,63284,-68,-227,966
05.10.2024 20:27:23:761,119,0,1,2,56221,92715,63284,-70,-228,966
05.10.2024 20:27:23:765,120,0,1,2,56214,92707,63284,-67,-221,969
05.10.2024 20:27:23:769,121,0,1,2,56220,92707,63284,-68,-230,969
05.10.2024 20:27:23:773,122,0,1,2,56209,92707,63285,-67,-225,973
05.10.2024 20:27:23:777,123,0,1,2,56211,92707,63286,-68,-226,965
05.10.2024 20:27:23:780,124,0,1,2,56210,92703,63280,-64,-230,964
05.10.2024 20:27:23:784,125,0,1,2,56214,92706,63285,-68,-228,969
05.10.2024 20:27:23:788,126,0,1,2,56211,92701,63280,-64,-230,975
05.10.2024 20:27:23:792,127,0,1,2,56213,92697,63280,-67,-226,970
05.10.2024 20:27:23:796,128,0,1,2,56213,92698,63280,-68,-227,968
05.10.2024 20:27:23:800,129,0,1,2,56218,92697,63278,-67,-230,972
05.10.2024 20:27:23:804,130,0,1,2,56226,92691,63276,-71,-230,964
05.10.2024 20:27:23:808,131,0,1,2,56225,92694,63279,-73,-232,969
05.10.2024 20:27:23:812,132,0,1,2,56222,92690,63277,-68,-233,963
05.10.2024 20:27:23:816,133,0,1,2,56224,92691,63279,-71,-234,971
05.10.2024 20:27:23:819,134,0,1,2,56232,92687,63279,-71,-232,969
05.10.2024 20:27:23:823,135,0,1,2,56231,92686,63277,-65,-233,968
05.10.2024 20:27:23:827,136,0,1,2,56231,92686,63274,-70,-231,966
05.10.2024 20:27:23:831,137,0,1,2,56235,92684,63276,-69,-229,967
05.10.2024 20:27:23:835,138,0,1,2,56243,92688,63279,-68,-232,971
05.10.2024 20:27:23:839,139,0,1,2,56240,92684,63275,-67,-236,967
05.10.2024 20:27:23:843,140,0,1,2,56235,92687,63276,-70,-232,965
05.10.2024 20:27:23:847,141,0,1,2,56234,92685,63279,-67,-235,968
05.10.2024 20:27:23:851,142,0,1,2,56243,92683,63276,-67,-225,973
05.10.2024 20:27:23:855,143,0,1,2,56240,92684,63281,-68,-234,966
05.10.2024 20:27:23:858,144,0,1,2,56240,92691,63280,-65,-226,972
05.10.2024 20:27:23:862,145,0,1,2,56243,92688,63282,-63,-228,966
05.10.2024 20:27:23:866,146,0,1,2,56246,92691,63284,-67,-229,968
05.10.2024 20:27:23:870,147,0,1,2,56251,92693,63288,-65,-235,974
05.10.2024 20:27:23:874,148,0,1,2,56249,92689,63286,-69,-228,970
05.10.2024 20:27:23:878,149,0,1,2,56251,92686,63287,-70,-229,969
05.10.2024 20:27:23:882,150,0,1,2,56258,92691,63290,-70,-218,971
05.10.2024 20:27:23:886,151,0,1,2,56252,92691,63288,-68,-221,976
05.10.2024 20:27:23:890,152,0,1,2,56244,92688,63284,-67,-225,969
05.10.2024 20:27:23:894,153,0,1,2,56255,92686,63286,-75,-229,968
05.10.2024 20:27:23:897,154,0,1,2,56259,92686,63285,-68,-227,965
05.10.2024 20:27:23:901,155,0,1,2,56257,92682,63285,-68,-227,965
05.10.2024 20:27:23:905,156,0,1,2,56257,92683,63285,-69,-228,968
05.10.2024 20:27:23:909,157,0,1,2,56258,92683,63284,-69,-226,973
05.10.2024 20:27:23:913,158,0,1,2,56258,92678,63279,-71,-223,964
05.10.2024 20:27:23:917,159,0,1,2,56252,92678,63280,-72,-226,969
05.10.2024 20:27:23:921,160,0,1,2,56257,92675,63276,-73,-228,970
05.10.2024 20:27:23:925,161,0,1,2,56251,92673,63275,-71,-232,969
05.10.2024 20:27:23:929,162,0,1,2,56254,92672,63276,-68,-229,974
05.10.2024 20:27:23:933,163,0,1,2,56246,92670,63276,-66,-226,966
05.10.2024 20:27:23:937,164,0,1,2,56250,92662,63274,-74,-225,970
05.10.2024 20:27:23:940,165,0,1,2,56247,92659,63271,-71,-227,965
05.10.2024 20:27:23:944,166,0,1,2,56246,92659,63269,-69,-231,971
05.10.2024 20:27:23:948,167,0,1,2,56244,92659,63267,-67,-229,966
05.10.2024 20:27:23:952,168,0,1,2,56244,92651,63263,-70,-234,967
05.10.2024 20:27:23:956,169,0,1,2,56241,92648,63263,-72,-228,970
05.10.2024 20:27:23:960,170,0,1,2,56237,92648,63261,-67,-227,970
05.10.2024 20:27:23:964,171,0,1,2,56238,92651,63255,-68,-229,975
05.10.2024 20:27:23:968,172,0,1,2,56235,92645,63256,-65,-233,968
05.10.2024 20:27:23:972,173,0,1,2,56238,92644,63253,-68,-231,970
05.10.2024 20:27:23:976,174,0,1,2,56228,92638,63251,-70,-233,963
05.10.2024 20:27:23:979,175,0,1,2,56223,92635,63249,-66,-230,967
05.10.2024 20:27:23:983,176,0,1,2,56229,92631,63249,-67,-232,969
05.10.2024 20:27:23:987,177,0,1,2,56222,92629,63244,-72,-231,969
05.10.2024 20:27:23:991,178,0,1,2,56225,92625,63245,-66,-229,970
05.10.2024 20:27:23:995,179,0,1,2,56227,92627,63246,-71,-227,962
05.10.2024 20:27:23:999,180,0,1,2,56222,92622,63237,-71,-230,968
05.10.2024 20:27:24:3,181,0,1,2,56223,92614,63237,-67,-231,966
05.10.2024 20:27:24:7,182,0,1,2,56220,92613,63237,-66,-233,966
05.10.2024 20:27:24:11,183,0,1,2,56218,92607,63236,-66,-235,965
05.10.2024 20:27:24:15,184,0,1,2,56220,92602,63226,-68,-227,970
05.10.2024 20:27:24:18,185,0,1,2,56224,92602,63232,-74,-227,967
05.10.2024 20:27:24:22,186,0,1,2,56226,92604,63229,-66,-228,967
05.10.2024 20:27:24:26,187,0,1,2,56217,92601,63227,-62,-230,967
05.10.2024 20:27:24:30,188,0,1,2,56223,92598,63221,-65,-226,965
05.10.2024 20:27:24:34,189,0,1,2,56224,92591,63224,-64,-227,963
05.10.2024 20:27:24:38,190,0,1,2,56230,92590,63221,-69,-231,972
05.10.2024 20:27:24:42,191,0,1,2,56229,92590,63218,-4,-228,968
05.10.2024 20:27:24:46,192,0,1,2,56230,92588,63219,-70,-232,967
05.10.2024 20:27:24:50,193,0,1,2,56233,92582,63216,-66,-233,973
05.10.2024 20:27:24:54,194,0,1,2,56232,92583,63218,-66,-231,968
05.10.2024 20:27:24:58,195,0,1,2,56235,92588,63218,-64,-235,974
05.10.2024 20:27:24:61,196,0,1,2,56233,92582,63214,-67,-231,973
05.10.2024 20:27:24:65,197,0,1,2,56237,92586,63214,-63,-232,967
05.10.2024 20:27:24:69,198,0,1,2,56239,92577,63211,-67,-227,970
05.10.2024 20:27:24:73,199,0,1,2,56242,92582,63213,-71,-232,974
05.10.2024 20:27:24:77,200,0,1,2,56243,92573,63207,-70,-231,967
05.10.2024 20:27:24:81,201,0,1,2,56248,92577,63210,-68,-230,960
05.10.2024 20:27:24:85,202,0,1,2,56249,92574,63212,-66,-228,971
05.10.2024 20:27:24:89,203,0,1,2,56247,92573,63210,-67,-230,972
05.10.2024 20:27:24:93,204,0,1,2,56259,92570,63208,-68,-232,973
05.10.2024 20:27:24:97,205,0,1,2,56258,92572,63207,-66,-226,970
05.10.2024 20:27:24:100,206,0,1,2,56256,92570,63208,-66,-235,973
05.10.2024 20:27:24:104,207,0,1,2,56266,92565,63203,-64,-227,969
05.10.2024 20:27:24:108,208,0,1,2,56271,92568,63206,-73,-234,974
05.10.2024 20:27:24:112,209,0,1,2,56273,92570,63208,-72,-236,972
05.10.2024 20:27:24:116,210,0,1,2,56272,92571,63206,-70,-227,972
05.10.2024 20:27:24:120,211,0,1,2,56276,92570,63208,-72,-232,971
05.10.2024 20:27:24:124,212,0,1,2,56278,92566,63205,-68,-231,967
05.10.2024 20:27:24:128,213,0,1,2,56280,92568,63208,-67,-232,969
05.10.2024 20:27:24:132,214,0,1,2,56284,92564,63204,-72,-228,967
05.10.2024 20:27:24:136,215,0,1,2,56280,92568,63208,-67,-225,972
05.10.2024 20:27:24:139,216,0,1,2,56290,92577,63209,-70,-223,967
05.10.2024 20:27:24:143,217,0,1,2,56295,92572,63210,-67,-221,966
05.10.2024 20:27:24:147,218,0,1,2,56293,92572,63207,-68,-227,969
05.10.2024 20:27:24:151,219,0,1,2,56295,92566,63210,-66,-232,969
05.10.2024 20:27:24:155,220,0,1,2,56295,92565,63205,-69,-232,973
05.10.2024 20:27:24:159,221,0,1,2,56294,92570,63206,-64,-229,973
05.10.2024 20:27:24:163,222,0,1,2,56300,92569,63206,-67,-231,972
05.10.2024 20:27:24:167,223,0,1,2,56293,92564,63206,-66,-231,971
05.10.2024 20:27:24:171,224,0,1,2,56309,92565,63201,-68,-232,968
05.10.2024 20:27:24:175,225,0,1,2,56312,92570,63208,-69,-228,968
05.10.2024 20:27:24:178,226,0,1,2,56315,92562,63206,-69,-229,967
05.10.2024 20:27:24:182,227,0,1,2,56324,92565,63205,-63,-231,968
05.10.2024 20:27:24:186,228,0,1,2,56318,92562,63204,-69,-233,966
05.10.2024 20:27:24:190,229,0,1,2,56328,92568,63202,-73,-228,970
05.10.2024 20:27:24:194,230,0,1,2,56326,92566,63205,-65,-231,967
05.10.2024 20:27:24:198,231,0,1,2,56327,92562,63211,-71,-229,971
05.10.2024 20:27:24:202,232,0,1,2,56328,92565,63206,-65,-233,973
05.10.2024 20:27:24:206,233,0,1,2,56326,92567,63211,-76,-224,966
05.10.2024 20:27:24:210,234,0,1,2,56333,92563,63213,-71,-225,969
05.10.2024 20:27:24:214,235,0,1,2,56335,92562,63209,-66,-228,969
05.10.2024 20:27:24:218,236,0,1,2,56339,92562,63206,-74,-226,968
05.10.2024 20:27:24:221,237,0,1,2,56343,92560,63206,-68,-227,963
05.10.2024 20:27:24:225,238,0,1,2,56342,92561,63203,-70,-226,974
05.10.2024 20:27:24:229,239,0,1,2,56351,92561,63204,-70,-231,970
05.10.2024 20:27:24:233,240,0,1,2,56351,92552,63205,-71,-237,968
05.10.2024 20:27:24:237,241,0,1,2,56350,92559,63204,-74,-237,970
05.10.2024 20:27:24:241,242,0,1,2,56352,92553,63202,-68,-238,972
05.10.2024 20:27:24:245,243,0,1,2,56352,92555,63202,-69,-238,967
05.10.2024 20:27:24:249,244,0,1,2,56354,92553,63202,-68,-232,969
05.10.2024 20:27:24:253,245,0,1,2,56356,92561,63204,-64,-236,971
05.10.2024 20:27:24:257,246,0,1,2,56364,92561,63208,-69,-231,969
05.10.2024 20:27:24:260,247,0,1,2,56363,92557,63209,-66,-228,966
05.10.2024 20:27:24:264,248,0,1,2,56361,92562,63210,-66,-234,969
05.10.2024 20:27:24:268,249,0,1,2,56367,92560,63213,-66,-232,971
05.10.2024 20:27:24:272,250,0,1,2,56369,92566,63211,-64,-230,968
05.10.2024 20:27:24:276,251,0,1,2,56373,92568,63217,-67,-229,966
05.10.2024 20:27:24:280,252,0,1,2,56379,92568,63219,-69,-228,972
05.10.2024 20:27:24:284,253,0,1,2,56372,92570,63220,-66,-223,965
05.10.2024 20:27:24:288,254,0,1,2,56384,92572,63219,-72,-223,967
05.10.2024 20:27:24:292,255,0,1,2,56375,92570,63215,-68,-233,969
05.10.2024 20:27:24:296,256,0,1,2,56385,92571,63218,-72,-230,970
05.10.2024 20:27:24:299,257,0,1,2,56388,92570,63219,-74,-225,968
05.10.2024 20:27:24:303,258,0,1,2,56386,92574,63216,-71,-226,970
05.10.2024 20:27:24:307,259,0,1,2,56392,92569,63212,-65,-236,968
05.10.2024 20:27:24:311,260,0,1,2,56383,92573,63215,-64,-231,971
05.10.2024 20:27:24:315,261,0,1,2,56393,92564,63218,-69,-230,968
05.10.2024 20:27:24:319,262,0,1,2,56398,92570,63211,-70,-230,967
05.10.2024 20:27:24:323,263,0,1,2,56398,92571,63211,-66,-226,965
05.10.2024 20:27:24:327,264,0,1,2,56392,92569,63212,-66,-228,969
05.10.2024 20:27:24:331,265,0,1,2,56399,92568,63213,-67,-224,967
05.10.2024 20:27:24:335,266,0,1,2,56398,92567,63211,-64,-220,968
05.10.2024 20:27:24:338,267,0,1,2,56402,92564,63209,-63,-225,971
05.10.2024 20:27:24:342,268,0,1,2,56402,92561,63202,-66,-228,969
05.10.2024 20:27:24:346,269,0,1,2,56402,92553,63201,-72,-227,970
05.10.2024 20:27:24:350,270,0,1,2,56411,92551,63196,-74,-228,969
05.10.2024 20:27:24:354,271,0,1,2,56403,92550,63195,-62,-230,972
05.10.2024 20:27:24:358,272,0,1,2,56414,92546,63189,-70,-234,968
05.10.2024 20:27:24:362,273,0,1,2,56418,92539,63188,-65,-232,972
05.10.2024 20:27:24:366,274,0,1,2,56410,92536,63181,-76,-226,969
05.10.2024 20:27:24:370,275,0,1,2,56417,92532,63182,-66,-229,969
05.10.2024 20:27:24:374,276,0,1,2,56416,92528,63180,-78,-232,967
05.10.2024 20:27:24:378,277,0,1,2,56417,92531,63176,-68,-235,973
05.10.2024 20:27:24:381,278,0,1,2,56415,92523,63176,-66,-231,966
05.10.2024 20:27:24:385,279,0,1,2,56419,92513,63171,-68,-236,966
05.10.2024 20:27:24:389,280,0,1,2,56411,92518,63171,-69,-238,973
05.10.2024 20:27:24:393,281,0,1,2,56415,92514,63168,-72,-237,968
05.10.2024 20:27:24:397,282,0,1,2,56406,92513,63165,-66,-242,967
05.10.2024 20:27:24:401,283,0,1,2,56404,92509,63164,-73,-240,964
05.10.2024 20:27:24:405,284,0,1,2,56395,92503,63163,-70,-235,968
05.10.2024 20:27:24:409,285,0,1,2,56388,92505,63166,-68,-238,969
05.10.2024 20:27:24:413,286,0,1,2,56382,92513,63164,-64,-241,971
05.10.2024 20:27:24:417,287,0,1,2,56367,92504,63166,-70,-231,966
05.10.2024 20:27:24:420,288,0,1,2,56358,92505,63172,-67,-228,970
05.10.2024 20:27:24:424,289,0,1,2,56351,92509,63172,-68,-227,966
05.10.2024 20:27:24:428,290,0,1,2,56347,92510,63172,-69,-228,971
05.10.2024 20:27:24:432,291,0,1,2,56340,92512,63178,-71,-227,967
05.10.2024 20:27:24:436,292,0,1,2,56321,92507,63176,-70,-229,969
05.10.2024 20:27:24:440,293,0,1,2,56316,92505,63172,-66,-228,963
05.10.2024 20:27:24:444,294,0,1,2,56306,92506,63175,-71,-224,966
05.10.2024 20:27:24:448,295,0,1,2,56303,92502,63171,-73,-229,973
05.10.2024 20:27:24:452,296,0,1,2,56298,92497,63169,-73,-228,973
05.10.2024 20:27:24:456,297,0,1,2,56286,92493,63165,-67,-232,965
05.10.2024 20:27:24:459,298,0,1,2,56281,92493,63167,-67,-232,965
05.10.2024 20:27:24:463,299,0,1,2,56273,92487,63167,-65,-228,974
05.10.2024 20:27:24:467,300,0,1,2,56269,92488,63163,-69,-231,972
05.10.2024 20:27:24:471,301,0,1,2,56268,92487,63166,-63,-230,972
05.10.2024 20:27:24:475,302,0,1,2,56262,92482,63161,-73,-231,968
05.10.2024 20:27:24:479,303,0,1,2,56264,92480,63159,-66,-229,963
05.10.2024 20:27:24:483,304,0,1,2,56262,92479,63159,-65,-228,967
05.10.2024 20:27:24:487,305,0,1,2,56254,92478,63159,-78,-233,968
05.10.2024 20:27:24:491,306,0,1,2,56249,92478,63158,-68,-226,972
05.10.2024 20:27:24:495,307,0,1,2,56245,92470,63161,-70,-233,969
05.10.2024 20:27:24:498,308,0,1,2,56245,92469,63158,-64,-234,968
05.10.2024 20:27:24:502,309,0,1,2,56246,92473,63155,-65,-233,972
05.10.2024 20:27:24:506,310,0,1,2,56247,92473,63157,-63,-231,967
05.10.2024 20:27:24:510,311,0,1,2,56244,92470,63154,-68,-233,969
05.10.2024 20:27:24:514,312,0,1,2,56247,92465,63154,-63,-229,966
05.10.2024 20:27:24:518,313,0,1,2,56240,92473,63155,-64,-235,968
05.10.2024 20:27:24:522,314,0,1,2,56247,92471,63154,-69,-232,968
05.10.2024 20:27:24:526,315,0,1,2,56245,92470,63156,-70,-233,976
05.10.2024 20:27:24:530,316,0,1,2,56242,92470,63160,-67,-229,971
05.10.2024 20:27:24:534,317,0,1,2,56249,92465,63154,-71,-235,965
05.10.2024 20:27:24:538,318,0,1,2,56252,92468,63153,-66,-232,962
05.10.2024 20:27:24:541,319,0,1,2,56251,92469,63148,-67,-231,970
05.10.2024 20:27:24:545,320,0,1,2,56250,92462,63155,-66,-232,968
05.10.2024 20:27:24:549,321,0,1,2,56252,92466,63152,-67,-233,972
05.10.2024 20:27:24:553,322,0,1,2,56252,92462,63150,-67,-231,968
05.10.2024 20:27:24:557,323,0,1,2,56251,92463,63149,-67,-231,968
05.10.2024 20:27:24:561,324,0,1,2,56256,92458,63150,-73,-234,967
05.10.2024 20:27:24:565,325,0,1,2,56252,92458,63145,-69,-236,969
05.10.2024 20:27:24:569,326,0,1,2,56257,92459,63147,-68,-236,969
05.10.2024 20:27:24:573,327,0,1,2,56256,92463,63149,-65,-234,965
05.10.2024 20:27:24:577,328,0,1,2,56256,92458,63147,-63,-231,968
05.10.2024 20:27:24:580,329,0,1,2,56262,92462,63147,-61,-229,969
05.10.2024 20:27:24:584,330,0,1,2,56257,92464,63151,-71,-234,964
05.10.2024 20:27:24:588,331,0,1,2,56260,92456,63150,-66,-227,971
05.10.2024 20:27:24:592,332,0,1,2,56260,92459,63152,-70,-230,972
05.10.2024 20:27:24:596,333,0,1,2,56264,92457,63154,-69,-229,975
05.10.2024 20:27:24:600,334,0,1,2,56262,92462,63152,-73,-230,972
05.10.2024 20:27:24:604,335,0,1,2,56268,92461,63150,-71,-229,968
05.10.2024 20:27:24:608,336,0,1,2,56264,92462,63147,-69,-226,972
05.10.2024 20:27:24:612,337,0,1,2,56269,92459,63149,-65,-229,974
05.10.2024 20:27:24:616,338,0,1,2,56270,92457,63146,-66,-231,974
05.10.2024 20:27:24:619,339,0,1,2,56265,92455,63144,-68,-234,965
05.10.2024 20:27:24:623,340,0,1,2,56275,92460,63146,-66,-235,969
05.10.2024 20:27:24:627,341,0,1,2,56268,92458,63146,-71,-232,965
05.10.2024 20:27:24:631,342,0,1,2,56270,92450,63142,-71,-230,970
05.10.2024 20:27:24:635,343,0,1,2,56269,92455,63143,-69,-232,966
05.10.2024 20:27:24:639,344,0,1,2,56268,92452,63142,-68,-234,968
05.10.2024 20:27:24:643,345,0,1,2,56266,92449,63136,-70,-233,964
05.10.2024 20:27:24:647,346,0,1,2,56267,92448,63138,-63,-233,973
05.10.2024 20:27:24:651,347,0,1,2,56261,92444,63133,-70,-231,967
05.10.2024 20:27:24:655,348,0,1,2,56260,92448,63133,-70,-231,967
05.10.2024 20:27:24:658,349,0,1,2,56258,92449,63133,-65,-228,970
05.10.2024 20:27:24:662,350,0,1,2,56264,92449,63135,-67,-232,970
05.10.2024 20:27:24:666,351,0,1,2,56253,92443,63132,-64,-231,974
05.10.2024 20:27:24:670,352,0,1,2,56256,92440,63131,-68,-238,971
05.10.2024 20:27:24:674,353,0,1,2,56250,92439,63130,-67,-236,970
05.10.2024 20:27:24:678,354,0,1,2,56250,92438,63129,-65,-235,971
05.10.2024 20:27:24:682,355,0,1,2,56252,92433,63127,-66,-233,966
05.10.2024 20:27:24:686,356,0,1,2,56252,92429,63123,-62,-236,969
05.10.2024 20:27:24:690,357,0,1,2,56247,92428,63123,-67,-235,969
05.10.2024 20:27:24:694,358,0,1,2,56243,92428,63121,-67,-232,969
05.10.2024 20:27:24:698,359,0,1,2,56241,92427,63120,-67,-236,969
05.10.2024 20:27:24:701,360,0,1,2,56241,92426,63116,-62,-232,964
05.10.2024 20:27:24:705,361,0,1,2,56244,92420,63115,-65,-234,972
05.10.2024 20:27:24:709,362,0,1,2,56243,92422,63114,-66,-232,971
05.10.2024 20:27:24:713,363,0,1,2,56243,92416,63111,-67,-232,965
05.10.2024 20:27:24:717,364,0,1,2,56242,92419,63107,-64,-227,966
05.10.2024 20:27:24:721,365,0,1,2,56238,92415,63111,-66,-231,966
05.10.2024 20:27:24:725,366,0,1,2,56233,92413,63106,-62,-229,971
05.10.2024 20:27:24:729,367,0,1,2,56230,92409,63103,-67,-236,969
05.10.2024 20:27:24:733,368,0,1,2,56235,92404,63101,-67,-240,968
05.10.2024 20:27:24:737,369,0,1,2,56230,92402,63099,-64,-236,972
05.10.2024 20:27:24:740,370,0,1,2,56235,92393,63093,-69,-239,970
05.10.2024 20:27:24:744,371,0,1,2,56230,92393,63092,-69,-244,966
05.10.2024 20:27:24:748,372,0,1,2,56230,92393,63093,-68,-235,970
05.10.2024 20:27:24:752,373,0,1,2,56233,92389,63088,-68,-235,970
05.10.2024 20:27:24:756,374,0,1,2,56234,92386,63084,-69,-234,965
05.10.2024 20:27:24:760,375,0,1,2,56234,92381,63084,-68,-235,967
05.10.2024 20:27:24:764,376,0,1,2,56231,92385,63082,-68,-238,969
05.10.2024 20:27:24:768,377,0,1,2,56230,92383,63079,-66,-234,968
05.10.2024 20:27:24:772,378,0,1,2,56235,92380,63080,-65,-237,966
05.10.2024 20:27:24:776,379,0,1,2,56234,92378,63081,-66,-230,972
05.10.2024 20:27:24:779,380,0,1,2,56239,92381,63082,-74,-232,967
05.10.2024 20:27:24:783,381,0,1,2,56234,92381,63079,-68,-232,967
05.10.2024 20:27:24:787,382,0,1,2,56238,92380,63079,-73,-228,971
05.10.2024 20:27:24:791,383,0,1,2,56237,92375,63074,-68,-230,959
05.10.2024 20:27:24:795,384,0,1,2,56243,92373,63075,-66,-230,972
05.10.2024 20:27:24:799,385,0,1,2,56245,92365,63072,-66,-233,965
05.10.2024 20:27:24:803,386,0,1,2,56247,92372,63073,-64,-235,963
05.10.2024 20:27:24:807,387,0,1,2,56244,92368,63074,-71,-234,972
05.10.2024 20:27:24:811,388,0,1,2,56252,92363,63067,-69,-232,970
05.10.2024 20:27:24:815,389,0,1,2,56251,92360,63069,-69,-233,968
05.10.2024 20:27:24:819,390,0,1,2,56256,92363,63065,-72,-232,969
05.10.2024 20:27:24:822,391,0,1,2,56256,92364,63067,-67,-236,967
05.10.2024 20:27:24:826,392,0,1,2,56256,92364,63066,-71,-235,968
05.10.2024 20:27:24:830,393,0,1,2,56263,92363,63063,-70,-237,967
05.10.2024 20:27:24:834,394,0,1,2,56265,92357,63060,-70,-239,964
05.10.2024 20:27:24:838,395,0,1,2,56268,92353,63061,-71,-236,968
05.10.2024 20:27:24:842,396,0,1,2,56270,92354,63061,-62,-238,970
05.10.2024 20:27:24:846,397,0,1,2,56273,92359,63060,-72,-237,964
05.10.2024 20:27:24:850,398,0,1,2,56272,92356,63062,-72,-237,964
05.10.2024 20:27:24:854,399,0,1,2,56271,92353,63059,-74,-231,968
05.10.2024 20:27:24:858,400,0,1,2,56275,92357,63058,-72,-231,972
05.10.2024 20:27:24:861,401,0,1,2,56280,92359,63062,-69,-233,968
05.10.2024 20:27:24:865,402,0,1,2,56284,92365,63059,-67,-232,962
05.10.2024 20:27:24:869,403,0,1,2,56285,92360,63062,-63,-234,964
05.10.2024 20:27:24:873,404,0,1,2,56279,92354,63059,-68,-234,967
05.10.2024 20:27:24:877,405,0,1,2,56281,92357,63064,-66,-231,973
05.10.2024 20:27:24:881,406,0,1,2,56287,92360,63054,-71,-233,967
05.10.2024 20:27:24:885,407,0,1,2,56286,92355,63058,-65,-229,971
05.10.2024 20:27:24:889,408,0,1,2,56293,92353,63055,-69,-236,968
05.10.2024 20:27:24:893,409,0,1,2,56286,92355,63058,-63,-234,970
05.10.2024 20:27:24:897,410,0,1,2,56291,92354,63056,-64,-237,974
05.10.2024 20:27:24:900,411,0,1,2,56301,92356,63057,-63,-237,973
05.10.2024 20:27:24:904,412,0,1,2,56300,92357,63053,-66,-233,969
05.10.2024 20:27:24:908,413,0,1,2,56300,92356,63050,-68,-236,967
05.10.2024 20:27:24:912,414,0,1,2,56301,92353,63056,-65,-238,971
05.10.2024 20:27:24:916,415,0,1,2,56304,92360,63051,-67,-236,958
05.10.2024 20:27:24:920,416,0,1,2,56309,92354,63052,-67,-230,968
05.10.2024 20:27:24:924,417,0,1,2,56302,92352,63054,-68,-231,968
05.10.2024 20:27:24:928,418,0,1,2,56311,92358,63055,-65,-232,969
05.10.2024 20:27:24:932,419,0,1,2,56317,92355,63055,-64,-234,971
05.10.2024 20:27:24:936,420,0,1,2,56318,92346,63051,-66,-237,966
05.10.2024 20:27:24:939,421,0,1,2,56319,92351,63049,-66,-234,974
05.10.2024 20:27:24:943,422,0,1,2,56321,92347,63049,-67,-229,962
05.10.2024 20:27:24:947,423,0,1,2,56321,92348,63048,-67,-229,962
05.10.2024 20:27:24:951,424,0,1,2,56328,92348,63046,-64,-235,971
05.10.2024 20:27:24:955,425,0,1,2,56330,92340,63043,-65,-237,966
05.10.2024 20:27:24:959,426,0,1,2,56334,92342,63042,-68,-243,964
05.10.2024 20:27:24:963,427,0,1,2,56336,92337,63041,-61,-239,964
05.10.2024 20:27:24:967,428,0,1,2,56332,92337,63041,-68,-239,968
05.10.2024 20:27:24:971,429,0,1,2,56343,92337,63044,-67,-235,969
05.10.2024 20:27:24:975,430,0,1,2,56340,92339,63036,-69,-235,966
05.10.2024 20:27:24:979,431,0,1,2,56343,92339,63042,-62,-241,970
05.10.2024 20:27:24:982,432,0,1,2,56342,92337,63041,-68,-236,969
05.10.2024 20:27:24:986,433,0,1,2,56350,92338,63041,-68,-241,968
05.10.2024 20:27:24:990,434,0,1,2,56349,92343,63044,-63,-234,969
05.10.2024 20:27:24:994,435,0,1,2,56357,92343,63044,-66,-239,963
05.10.2024 20:27:24:998,436,0,1,2,56354,92343,63041,-66,-237,969
05.10.2024 20:27:25:2,437,0,1,2,56360,92340,63045,-68,-231,967
05.10.2024 20:27:25:6,438,0,1,2,56361,92346,63046,-64,-235,967
05.10.2024 20:27:25:10,439,0,1,2,56362,92343,63046,-67,-231,972
05.10.2024 20:27:25:14,440,0,1,2,56367,92349,63044,-67,-232,965
05.10.2024 20:27:25:18,441,0,1,2,56367,92344,63047,-68,-227,966
05.10.2024 20:27:25:21,442,0,1,2,56368,92345,63045,-73,-230,964
05.10.2024 20:27:25:25,443,0,1,2,56374,92341,63042,-64,-231,967
05.10.2024 20:27:25:29,444,0,1,2,56382,92340,63039,-65,-233,966
05.10.2024 20:27:25:33,445,0,1,2,56377,92343,63041,-68,-232,971
05.10.2024 20:27:25:37,446,0,1,2,56382,92338,63034,-63,-231,972
05.10.2024 20:27:25:41,447,0,1,2,56385,92336,63038,-62,-234,967
05.10.2024 20:27:25:45,448,0,1,2,56383,92332,63036,-64,-236,968
05.10.2024 20:27:25:49,449,0,1,2,56390,92331,63033,-69,-237,966
05.10.2024 20:27:25:53,450,0,1,2,56388,92333,63032,-64,-236,961
05.10.2024 20:27:25:57,451,0,1,2,56389,92329,63033,-67,-234,965
05.10.2024 20:27:25:60,452,0,1,2,56393,92329,63025,-66,-232,968
05.10.2024 20:27:25:64,453,0,1,2,56395,92323,63022,-68,-237,970
05.10.2024 20:27:25:68,454,0,1,2,56401,92320,63023,-67,-237,972
05.10.2024 20:27:25:72,455,0,1,2,56396,92323,63021,-65,-229,968
05.10.2024 20:27:25:76,456,0,1,2,56402,92320,63022,-67,-232,968
05.10.2024 20:27:25:80,457,0,1,2,56403,92315,63022,-64,-237,971
05.10.2024 20:27:25:84,458,0,1,2,56403,92315,63015,-64,-237,968
05.10.2024 20:27:25:88,459,0,1,2,56406,92307,63015,-65,-238,972
05.10.2024 20:27:25:92,460,0,1,2,56411,92313,63018,-67,-242,965
05.10.2024 20:27:25:96,461,0,1,2,56412,92313,63018,-64,-238,962
05.10.2024 20:27:25:99,462,0,1,2,56411,92308,63013,-66,-236,969
05.10.2024 20:27:25:103,463,0,1,2,56414,92308,63017,-64,-239,970
05.10.2024 20:27:25:107,464,0,1,2,56421,92312,63016,-65,-238,969
05.10.2024 20:27:25:111,465,0,1,2,56420,92312,63013,-67,-237,974
05.10.2024 20:27:25:115,466,0,1,2,56424,92308,63012,-68,-236,965
05.10.2024 20:27:25:119,467,0,1,2,56423,92314,63012,-71,-232,965
05.10.2024 20:27:25:123,468,0,1,2,56425,92306,63011,-69,-237,966
05.10.2024 20:27:25:127,469,0,1,2,56418,92308,63015,-66,-233,963
05.10.2024 20:27:25:131,470,0,1,2,56407,92307,63014,-73,-242,971
05.10.2024 20:27:25:135,471,0,1,2,56404,92309,63009,-68,-233,972
05.10.2024 20:27:25:139,472,0,1,2,56403,92304,63016,-70,-236,969
05.10.2024 20:27:25:142,473,0,1,2,56398,92304,63013,-68,-233,972
05.10.2024 20:27:25:146,474,0,1,2,56393,92307,63012,-69,-235,967
05.10.2024 20:27:25:150,475,0,1,2,56384,92305,63014,-66,-242,961
05.10.2024 20:27:25:154,476,0,1,2,56374,92304,63016,-65,-238,971
05.10.2024 20:27:25:158,477,0,1,2,56369,92297,63016,-64,-234,967
05.10.2024 20:27:25:162,478,0,1,2,56366,92301,63019,-68,-236,967
05.10.2024 20:27:25:166,479,0,1,2,56358,92301,63015,-67,-231,965
05.10.2024 20:27:25:170,480,0,1,2,56353,92299,63016,-69,-236,968
05.10.2024 20:27:25:174,481,0,1,2,56342,92297,63012,-70,-227,970
05.10.2024 20:27:25:178,482,0,1,2,56336,92291,63012,-70,-234,969
05.10.2024 20:27:25:181,483,0,1,2,56333,92289,63013,-69,-239,964
05.10.2024 20:27:25:185,484,0,1,2,56328,92291,63013,-61,-229,967
05.10.2024 20:27:25:189,485,0,1,2,56318,92290,63012,-65,-235,964
05.10.2024 20:27:25:193,486,0,1,2,56318,92286,63016,-66,-232,971
05.10.2024 20:27:25:197,487,0,1,2,56315,92284,63012,-69,-232,961
05.10.2024 20:27:25:201,488,0,1,2,56309,92280,63011,-66,-237,972
05.10.2024 20:27:25:205,489,0,1,2,56310,92285,63009,-67,-235,968
05.10.2024 20:27:25:209,490,0,1,2,56303,92281,63011,-61,-234,970
05.10.2024 20:27:25:213,491,0,1,2,56302,92280,63010,-65,-233,964
05.10.2024 20:27:25:217,492,0,1,2,56308,92277,63008,-65,-237,961
05.10.2024 20:27:25:220,493,0,1,2,56302,92285,63011,-63,-233,971
05.10.2024 20:27:25:224,494,0,1,2,56304,92278,63010,-61,-234,967
05.10.2024 20:27:25:228,495,0,1,2,56304,92279,63009,-62,-243,970
05.10.2024 20:27:25:232,496,0,1,2,56306,92279,63008,-65,-237,969
05.10.2024 20:27:25:236,497,0,1,2,56305,92277,63008,-61,-234,966
05.10.2024 20:27:25:240,498,0,1,2,56307,92274,63012,-61,-241,968
05.10.2024 20:27:25:244,499,0,1,2,56304,92278,63014,-64,-236,966
05.10.2024 20:27:25:248,500,0,1,2,56311,92283,63014,-62,-235,968
05.10.2024 20:27:25:252,501,0,1,2,56313,92280,63018,-64,-236,967
05.10.2024 20:27:25:256,502,0,1,2,56318,92282,63014,-71,-237,974
05.10.2024 20:27:25:259,503,0,1,2,56325,92287,63012,-73,-239,968
05.10.2024 20:27:25:263,504,0,1,2,56324,92287,63020,-65,-237,968
05.10.2024 20:27:25:267,505,0,1,2,56322,92289,63019,-68,-239,968
05.10.2024 20:27:25:271,506,0,1,2,56327,92285,63020,-65,-241,967
05.10.2024 20:27:25:275,507,0,1,2,56329,92290,63026,-65,-240,965
05.10.2024 20:27:25:279,508,0,1,2,56339,92291,63029,-62,-240,965
05.10.2024 20:27:25:283,509,0,1,2,56342,92293,63028,-63,-238,967
05.10.2024 20:27:25:287,510,0,1,2,56342,92294,63030,-66,-233,967
05.10.2024 20:27:25:291,511,0,1,2,56350,92298,63035,-59,-235,968
05.10.2024 20:27:25:295,512,0,1,2,56346,92306,63039,-70,-234,968
05.10.2024 20:27:25:299,513,0,1,2,56358,92309,63043,-72,-231,969
05.10.2024 20:27:25:302,514,0,1,2,56360,92311,63046,-65,-226,973
05.10.2024 20:27:25:306,515,0,1,2,56361,92311,63047,-64,-228,971
05.10.2024 20:27:25:310,516,0,1,2,56360,92318,63051,-67,-235,960
05.10.2024 20:27:25:314,517,0,1,2,56368,92321,63052,-68,-224,967
05.10.2024 20:27:25:318,518,0,1,2,56370,92319,63051,-69,-230,968
05.10.2024 20:27:25:322,519,0,1,2,56373,92322,63055,-63,-228,967
05.10.2024 20:27:25:326,520,0,1,2,56375,92321,63057,-64,-232,965
05.10.2024 20:27:25:330,521,0,1,2,56385,92324,63056,-68,-231,971
05.10.2024 20:27:25:334,522,0,1,2,56386,92325,63059,-69,-226,971
05.10.2024 20:27:25:338,523,0,1,2,56392,92327,63056,-68,-230,964
05.10.2024 20:27:25:341,524,0,1,2,56400,92326,63056,-61,-233,966
05.10.2024 20:27:25:345,525,0,1,2,56395,92324,63057,-67,-234,971
05.10.2024 20:27:25:349,526,0,1,2,56402,92323,63056,-66,-234,962
05.10.2024 20:27:25:353,527,0,1,2,56404,92325,63058,-67,-232,969
05.10.2024 20:27:25:357,528,0,1,2,56407,92324,63058,-63,-239,961
05.10.2024 20:27:25:361,529,0,1,2,56411,92324,63055,-70,-238,965
05.10.2024 20:27:25:365,530,0,1,2,56411,92322,63056,-71,-235,968
05.10.2024 20:27:25:369,531,0,1,2,56413,92323,63058,-67,-237,960
05.10.2024 20:27:25:373,532,0,1,2,56415,92324,63056,-67,-236,975
05.10.2024 20:27:25:377,533,0,1,2,56412,92320,63054,-69,-236,967
05.10.2024 20:27:25:380,534,0,1,2,56417,92326,63059,-62,-234,958
05.10.2024 20:27:25:384,535,0,1,2,56417,92316,63057,-66,-235,970
05.10.2024 20:27:25:388,536,0,1,2,56421,92321,63056,-67,-242,974
05.10.2024 20:27:25:392,537,0,1,2,56414,92325,63051,-62,-234,970
05.10.2024 20:27:25:396,538,0,1,2,56417,92323,63055,-65,-233,965
05.10.2024 20:27:25:400,539,0,1,2,56415,92322,63055,-69,-234,971
05.10.2024 20:27:25:404,540,0,1,2,56421,92320,63054,-70,-233,966
05.10.2024 20:27:25:408,541,0,1,2,56420,92324,63051,-69,-237,963
05.10.2024 20:27:25:412,542,0,1,2,56428,92318,63055,-67,-236,959
05.10.2024 20:27:25:416,543,0,1,2,56424,92321,63055,-69,-231,967
05.10.2024 20:27:25:419,544,0,1,2,56427,92316,63053,-72,-231,963
05.10.2024 20:27:25:423,545,0,1,2,56426,92317,63057,-66,-237,967
05.10.2024 20:27:25:427,546,0,1,2,56432,92319,63050,-61,-237,973
05.10.2024 20:27:25:431,547,0,1,2,56424,92317,63056,-67,-234,968
05.10.2024 20:27:25:435,548,0,1,2,56430,92313,63051,-60,-237,974
05.10.2024 20:27:25:439,549,0,1,2,56429,92316,63054,-65,-238,970
05.10.2024 20:27:25:443,550,0,1,2,56429,92308,63048,-68,-239,966
05.10.2024 20:27:25:447,551,0,1,2,56429,92317,63048,-64,-237,968
05.10.2024 20:27:25:451,552,0,1,2,56429,92311,63050,-69,-235,967
05.10.2024 20:27:25:455,553,0,1,2,56429,92312,63050,-64,-239,969
05.10.2024 20:27:25:459,554,0,1,2,56435,92313,63051,-65,-231,968
05.10.2024 20:27:25:462,555,0,1,2,56434,92314,63051,-68,-232,968
05.10.2024 20:27:25:466,556,0,1,2,56445,92309,63051,-65,-232,967
05.10.2024 20:27:25:470,557,0,1,2,56441,92315,63051,-66,-230,968
05.10.2024 20:27:25:474,558,0,1,2,56440,92311,63055,-68,-235,966
05.10.2024 20:27:25:478,559,0,1,2,56449,92318,63055,-63,-237,972
05.10.2024 20:27:25:482,560,0,1,2,56447,92317,63056,-61,-239,970
05.10.2024 20:27:25:486,561,0,1,2,56452,92313,63051,-64,-239,967
05.10.2024 20:27:25:490,562,0,1,2,56456,92315,63058,-67,-231,966
05.10.2024 20:27:25:494,563,0,1,2,56458,92316,63057,-70,-234,961
05.10.2024 20:27:25:498,564,0,1,2,56457,92314,63057,-59,-233,970
05.10.2024 20:27:25:501,565,0,1,2,56465,92320,63058,-66,-228,969
05.10.2024 20:27:25:505,566,0,1,2,56464,92320,63065,-64,-229,965
05.10.2024 20:27:25:509,567,0,1,2,56473,92318,63062,-65,-230,969
05.10.2024 20:27:25:513,568,0,1,2,56478,92323,63064,-65,-231,970
05.10.2024 20:27:25:517,569,0,1,2,56482,92315,63063,-68,-235,967
05.10.2024 20:27:25:521,570,0,1,2,56480,92318,63063,-66,-231,970
05.10.2024 20:27:25:525,571,0,1,2,56488,92327,63065,-66,-228,966
05.10.2024 20:27:25:529,572,0,1,2,56492,92317,63064,-68,-228,970
05.10.2024 20:27:25:533,573,0,1,2,56495,92324,63062,-68,-230,971
05.10.2024 20:27:25:537,574,0,1,2,56505,92322,63066,-65,-234,966
05.10.2024 20:27:25:540,575,0,1,2,56507,92320,63060,-64,-236,966
05.10.2024 20:27:25:544,576,0,1,2,56512,92319,63066,-62,-236,968
05.10.2024 20:27:25:548,577,0,1,2,56516,92320,63063,-69,-238,971
05.10.2024 20:27:25:552,578,0,1,2,56519,92319,63065,-65,-231,968
05.10.2024 20:27:25:556,579,0,1,2,56519,92320,63063,-68,-239,972
05.10.2024 20:27:25:560,580,0,1,2,56528,92316,63065,-64,-235,965
05.10.2024 20:27:25:564,581,0,1,2,56533,92322,63065,-66,-236,964
05.10.2024 20:27:25:568,582,0,1,2,56539,92317,63069,-66,-233,969
05.10.2024 20:27:25:572,583,0,1,2,56544,92321,63071,-69,-238,968
05.10.2024 20:27:25:576,584,0,1,2,56541,92317,63071,-71,-232,971
05.10.2024 20:27:25:580,585,0,1,2,56548,92326,63072,-73,-234,968
05.10.2024 20:27:25:583,586,0,1,2,56551,92328,63067,-65,-228,969
05.10.2024 20:27:25:587,587,0,1,2,56554,92321,63068,-66,-230,966
05.10.2024 20:27:25:591,588,0,1,2,56559,92326,63075,-66,-229,969
05.10.2024 20:27:25:595,589,0,1,2,56564,92330,63075,-68,-227,965
05.10.2024 20:27:25:599,590,0,1,2,56567,92326,63072,-70,-233,970
05.10.2024 20:27:25:603,591,0,1,2,56573,92329,63072,-69,-228,970
05.10.2024 20:27:25:607,592,0,1,2,56573,92326,63074,-68,-233,973
05.10.2024 20:27:25:611,593,0,1,2,56578,92331,63070,-68,-228,971
05.10.2024 20:27:25:615,594,0,1,2,56581,92330,63075,-70,-231,967
05.10.2024 20:27:25:619,595,0,1,2,56591,92329,63075,-67,-231,974
05.10.2024 20:27:25:622,596,0,1,2,56588,92326,63077,-62,-230,970
05.10.2024 20:27:25:626,597,0,1,2,56595,92333,63073,-70,-232,976
05.10.2024 20:27:25:630,598,0,1,2,56601,92329,63074,-70,-227,973
05.10.2024 20:27:25:634,599,0,1,2,56601,92324,63072,-67,-231,972
05.10.2024 20:27:25:638,600,0,1,2,56602,92325,63074,-63,-236,973
05.10.2024 20:27:25:642,601,0,1,2,56607,92325,63074,-61,-237,968
05.10.2024 20:27:25:646,602,0,1,2,56613,92325,63073,-66,-236,972
05.10.2024 20:27:25:650,603,0,1,2,56613,92324,63074,-66,-229,970
05.10.2024 20:27:25:654,604,0,1,2,56613,92319,63075,-70,-234,973
05.10.2024 20:27:25:658,605,0,1,2,56622,92318,63066,-65,-231,967
05.10.2024 20:27:25:661,606,0,1,2,56627,92317,63069,-64,-233,972
05.10.2024 20:27:25:665,607,0,1,2,56629,92321,63071,-61,-229,969
05.10.2024 20:27:25:669,608,0,1,2,56633,92321,63068,-62,-233,972
05.10.2024 20:27:25:673,609,0,1,2,56638,92328,63072,-63,-226,969
05.10.2024 20:27:25:677,610,0,1,2,56641,92318,63070,-64,-232,966
05.10.2024 20:27:25:681,611,0,1,2,56645,92324,63073,-68,-235,970
05.10.2024 20:27:25:685,612,0,1,2,56654,92323,63073,-69,-232,970
05.10.2024 20:27:25:689,613,0,1,2,56652,92323,63070,-68,-232,967
05.10.2024 20:27:25:693,614,0,1,2,56659,92325,63072,-71,-235,966
05.10.2024 20:27:25:697,615,0,1,2,56662,92322,63071,-70,-238,966
05.10.2024 20:27:25:700,616,0,1,2,56671,92320,63068,-71,-235,972
05.10.2024 20:27:25:704,617,0,1,2,56670,92325,63072,-66,-236,971
05.10.2024 20:27:25:708,618,0,1,2,56675,92322,63073,-66,-234,967
05.10.2024 20:27:25:712,619,0,1,2,56681,92327,63071,-69,-235,972
05.10.2024 20:27:25:716,620,0,1,2,56683,92324,63072,-71,-235,969
05.10.2024 20:27:25:720,621,0,1,2,56689,92325,63074,-66,-232,966
05.10.2024 20:27:25:724,622,0,1,2,56692,92324,63076,-67,-235,972
05.10.2024 20:27:25:728,623,0,1,2,56690,92322,63072,-69,-234,974
05.10.2024 20:27:25:732,624,0,1,2,56693,92329,63074,-67,-228,972
05.10.2024 20:27:25:736,625,0,1,2,56691,92322,63071,-70,-227,968
05.10.2024 20:27:25:740,626,0,1,2,56699,92323,63072,-71,-230,972
05.10.2024 20:27:25:743,627,0,1,2,56712,92320,63072,-66,-224,966
05.10.2024 20:27:25:747,628,0,1,2,56708,92316,63065,-64,-229,966
05.10.2024 20:27:25:751,629,0,1,2,56711,92314,63064,-62,-231,972
05.10.2024 20:27:25:755,630,0,1,2,56716,92311,63064,-64,-233,966
05.10.2024 20:27:25:759,631,0,1,2,56718,92309,63062,-66,-234,972
05.10.2024 20:27:25:763,632,0,1,2,56717,92305,63058,-69,-230,968
05.10.2024 20:27:25:767,633,0,1,2,56726,92308,63059,-64,-224,961
05.10.2024 20:27:25:771,634,0,1,2,56733,92302,63058,-64,-232,966
05.10.2024 20:27:25:775,635,0,1,2,56730,92304,63054,-63,-231,965
05.10.2024 20:27:25:779,636,0,1,2,56731,92295,63050,-67,-228,970
05.10.2024 20:27:25:782,637,0,1,2,56734,92301,63053,-64,-234,963
05.10.2024 20:27:25:786,638,0,1,2,56733,92296,63048,-68,-232,965
05.10.2024 20:27:25:790,639,0,1,2,56741,92293,63051,-65,-236,969
05.10.2024 20:27:25:794,640,0,1,2,56735,92294,63043,-69,-233,973
05.10.2024 20:27:25:798,641,0,1,2,56733,92290,63039,-65,-236,971
05.10.2024 20:27:25:802,642,0,1,2,56737,92286,63044,-67,-242,969
05.10.2024 20:27:25:806,643,0,1,2,56728,92284,63038,-67,-238,962
05.10.2024 20:27:25:810,644,0,1,2,56723,92285,63040,-67,-233,967
05.10.2024 20:27:25:814,645,0,1,2,56717,92281,63041,-71,-235,965
05.10.2024 20:27:25:818,646,0,1,2,56714,92276,63039,-67,-239,963
05.10.2024 20:27:25:821,647,0,1,2,56708,92277,63035,-73,-237,970
05.10.2024 20:27:25:825,648,0,1,2,56704,92277,63036,-67,-244,971
05.10.2024 20:27:25:829,649,0,1,2,56695,92275,63035,-72,-242,971
05.10.2024 20:27:25:833,650,0,1,2,56695,92273,63040,-68,-234,965
05.10.2024 20:27:25:837,651,0,1,2,56687,92271,63038,-68,-233,968
05.10.2024 20:27:25:841,652,0,1,2,56679,92278,63036,-72,-238,962
05.10.2024 20:27:25:845,653,0,1,2,56671,92274,63039,-71,-238,969
05.10.2024 20:27:25:849,654,0,1,2,56671,92276,63040,-70,-233,968
05.10.2024 20:27:25:853,655,0,1,2,56659,92272,63046,-65,-231,965
05.10.2024 20:27:25:857,656,0,1,2,56657,92276,63046,-66,-228,965
05.10.2024 20:27:25:860,657,0,1,2,56642,92277,63044,-71,-227,963
05.10.2024 20:27:25:864,658,0,1,2,56639,92278,63052,-71,-228,967
05.10.2024 20:27:25:868,659,0,1,2,56636,92282,63056,-70,-235,965
05.10.2024 20:27:25:872,660,0,1,2,56632,92284,63053,-71,-234,967
05.10.2024 20:27:25:876,661,0,1,2,56628,92282,63052,-69,-229,965
05.10.2024 20:27:25:880,662,0,1,2,56623,92282,63057,-66,-233,970
05.10.2024 20:27:25:884,663,0,1,2,56627,92284,63059,-71,-219,960
05.10.2024 20:27:25:888,664,0,1,2,56621,92285,63056,-68,-227,965
05.10.2024 20:27:25:892,665,0,1,2,56619,92279,63058,-68,-227,970
05.10.2024 20:27:25:896,666,0,1,2,56618,92280,63060,-67,-227,970
05.10.2024 20:27:25:900,667,0,1,2,56623,92282,63058,-67,-228,972
05.10.2024 20:27:25:903,668,0,1,2,56621,92281,63057,-63,-227,968
05.10.2024 20:27:25:907,669,0,1,2,56622,92279,63053,-66,-230,966
05.10.2024 20:27:25:911,670,0,1,2,56618,92273,63053,-70,-229,972
05.10.2024 20:27:25:915,671,0,1,2,56624,92281,63051,-65,-232,976
05.10.2024 20:27:25:919,672,0,1,2,56630,92275,63054,-65,-231,975
05.10.2024 20:27:25:923,673,0,1,2,56632,92271,63054,-72,-233,974
05.10.2024 20:27:25:927,674,0,1,2,56628,92271,63052,-71,-236,969
05.10.2024 20:27:25:931,675,0,1,2,56631,92274,63055,-63,-232,967
05.10.2024 20:27:25:935,676,0,1,2,56635,92271,63053,-68,-230,971
05.10.2024 20:27:25:939,677,0,1,2,56643,92276,63055,-70,-233,972
05.10.2024 20:27:25:942,678,0,1,2,56641,92274,63051,-73,-231,972
05.10.2024 20:27:25:946,679,0,1,2,56643,92276,63056,-71,-231,966
05.10.2024 20:27:25:950,680,0,1,2,56645,92276,63052,-74,-229,965
05.10.2024 20:27:25:954,681,0,1,2,56649,92272,63057,-71,-231,970
05.10.2024 20:27:25:958,682,0,1,2,56654,92271,63058,-70,-229,971
05.10.2024 20:27:25:962,683,0,1,2,56653,92276,63053,-73,-230,973
05.10.2024 20:27:25:966,684,0,1,2,56667,92276,63059,-69,-231,965
05.10.2024 20:27:25:970,685,0,1,2,56671,92280,63059,-70,-230,971
05.10.2024 20:27:25:974,686,0,1,2,56670,92283,63060,-74,-225,968
05.10.2024 20:27:25:978,687,0,1,2,56672,92276,63061,-70,-225,971
05.10.2024 20:27:25:981,688,0,1,2,56667,92276,63058,-72,-225,970
05.10.2024 20:27:25:985,689,0,1,2,56664,92284,63066,-75,-225,972
05.10.2024 20:27:25:989,690,0,1,2,56675,92282,63059,-68,-228,974
05.10.2024 20:27:25:993,691,0,1,2,56685,92282,63059,-68,-234,968
05.10.2024 20:27:25:997,692,0,1,2,56675,92281,63056,-68,-228,963
05.10.2024 20:27:26:1,693,0,1,2,56684,92277,63054,-68,-232,971
05.10.2024 20:27:26:5,694,0,1,2,56683,92276,63052,-69,-233,968
05.10.2024 20:27:26:9,695,0,1,2,56684,92279,63056,-66,-234,971
05.10.2024 20:27:26:13,696,0,1,2,56694,92277,63054,-72,-236,967
05.10.2024 20:27:26:17,697,0,1,2,56692,92273,63055,-64,-232,972
05.10.2024 20:27:26:20,698,0,1,2,56690,92275,63051,-70,-235,974
05.10.2024 20:27:26:24,699,0,1,2,56691,92273,63053,-69,-230,969
05.10.2024 20:27:26:28,700,0,1,2,56694,92274,63051,-64,-227,965
05.10.2024 20:27:26:32,701,0,1,2,56693,92270,63052,-61,-229,968
05.10.2024 20:27:26:36,702,0,1,2,56705,92274,63049,-62,-233,969
05.10.2024 20:27:26:40,703,0,1,2,56698,92274,63049,-66,-229,965
05.10.2024 20:27:26:44,704,0,1,2,56700,92269,63049,-4,-230,970
05.10.2024 20:27:26:48,705,0,1,2,56705,92264,63051,-62,-229,970
05.10.2024 20:27:26:52,706,0,1,2,56706,92272,63050,-64,-235,968
05.10.2024 20:27:26:56,707,0,1,2,56702,92268,63043,-70,-237,971
05.10.2024 20:27:26:60,708,0,1,2,56705,92268,63044,-69,-230,966
05.10.2024 20:27:26:63,709,0,1,2,56704,92263,63045,-67,-232,974
05.10.2024 20:27:26:67,710,0,1,2,56706,92267,63042,-65,-230,969
05.10.2024 20:27:26:71,711,0,1,2,56704,92261,63041,-66,-224,969
05.10.2024 20:27:26:75,712,0,1,2,56700,92263,63043,-70,-225,974
05.10.2024 20:27:26:79,713,0,1,2,56703,92258,63035,-69,-221,965
05.10.2024 20:27:26:83,714,0,1,2,56699,92250,63034,-70,-232,968
05.10.2024 20:27:26:87,715,0,1,2,56706,92251,63034,-73,-228,975
05.10.2024 20:27:26:91,716,0,1,2,56704,92247,63030,-70,-232,969
05.10.2024 20:27:26:95,717,0,1,2,56704,92243,63025,-65,-239,970
05.10.2024 20:27:26:99,718,0,1,2,56706,92245,63027,-71,-241,968
05.10.2024 20:27:26:102,719,0,1,2,56705,92238,63022,-67,-239,972
05.10.2024 20:27:26:106,720,0,1,2,56702,92236,63023,-72,-242,972
05.10.2024 20:27:26:110,721,0,1,2,56703,92239,63020,-63,-238,972
05.10.2024 20:27:26:114,722,0,1,2,56707,92234,63022,-67,-237,968
05.10.2024 20:27:26:118,723,0,1,2,56700,92234,63018,-65,-231,968
05.10.2024 20:27:26:122,724,0,1,2,56698,92236,63024,-63,-232,971
05.10.2024 20:27:26:126,725,0,1,2,56710,92233,63021,-71,-233,971
05.10.2024 20:27:26:130,726,0,1,2,56704,92236,63021,-64,-233,969
05.10.2024 20:27:26:134,727,0,1,2,56704,92233,63021,-65,-232,961
05.10.2024 20:27:26:138,728,0,1,2,56705,92234,63018,-65,-231,970
05.10.2024 20:27:26:141,729,0,1,2,56705,92236,63019,-66,-227,968
05.10.2024 20:27:26:145,730,0,1,2,56703,92236,63020,-64,-225,969
05.10.2024 20:27:26:149,731,0,1,2,56699,92236,63021,-64,-233,969
05.10.2024 20:27:26:153,732,0,1,2,56705,92234,63020,-68,-230,975
05.10.2024 20:27:26:157,733,0,1,2,56713,92232,63017,-68,-230,972
05.10.2024 20:27:26:161,734,0,1,2,56709,92234,63021,-68,-234,969
05.10.2024 20:27:26:165,735,0,1,2,56707,92234,63018,-65,-232,966
05.10.2024 20:27:26:169,736,0,1,2,56715,92229,63015,-63,-227,976
05.10.2024 20:27:26:173,737,0,1,2,56716,92235,63021,-62,-227,972
05.10.2024 20:27:26:177,738,0,1,2,56718,92225,63013,-67,-234,970
05.10.2024 20:27:26:180,739,0,1,2,56721,92224,63014,-69,-229,972
05.10.2024 20:27:26:184,740,0,1,2,56724,92229,63010,-69,-228,964
05.10.2024 20:27:26:188,741,0,1,2,56727,92225,63014,-68,-226,971
05.10.2024 20:27:26:192,742,0,1,2,56734,92224,63014,-67,-229,970
05.10.2024 20:27:26:196,743,0,1,2,56739,92216,63009,-64,-234,973
05.10.2024 20:27:26:200,744,0,1,2,56740,92223,63008,-65,-230,973
05.10.2024 20:27:26:204,745,0,1,2,56744,92220,63012,-65,-232,968
05.10.2024 20:27:26:208,746,0,1,2,56744,92224,63008,-68,-230,975
05.10.2024 20:27:26:212,747,0,1,2,56750,92218,63011,-65,-234,973
05.10.2024 20:27:26:216,748,0,1,2,56755,92218,63011,-64,-234,964
05.10.2024 20:27:26:220,749,0,1,2,56752,92223,63004,-61,-231,966
05.10.2024 20:27:26:223,750,0,1,2,56760,92225,63007,-66,-233,968
05.10.2024 20:27:26:227,751,0,1,2,56763,92221,63011,-66,-234,971
05.10.2024 20:27:26:231,752,0,1,2,56768,92219,63008,-72,-224,965
05.10.2024 20:27:26:235,753,0,1,2,56768,92219,63009,-75,-226,965
05.10.2024 20:27:26:239,754,0,1,2,56773,92216,63010,-75,-224,964
05.10.2024 20:27:26:243,755,0,1,2,56770,92220,63011,-66,-233,968
05.10.2024 20:27:26:247,756,0,1,2,56777,92219,63008,-74,-230,965
05.10.2024 20:27:26:251,757,0,1,2,56777,92221,63012,-67,-229,967
05.10.2024 20:27:26:255,758,0,1,2,56786,92224,63011,-71,-227,967
05.10.2024 20:27:26:259,759,0,1,2,56794,92218,63009,-70,-228,972
05.10.2024 20:27:26:262,760,0,1,2,56789,92216,63011,-68,-231,973
05.10.2024 20:27:26:266,761,0,1,2,56789,92219,63008,-70,-233,969
05.10.2024 20:27:26:270,762,0,1,2,56798,92216,63009,-64,-232,972
05.10.2024 20:27:26:274,763,0,1,2,56805,92223,63010,-70,-231,970
05.10.2024 20:27:26:278,764,0,1,2,56812,92229,63011,-67,-226,971
05.10.2024 20:27:26:282,765,0,1,2,56807,92230,63011,-73,-220,973
05.10.2024 20:27:26:286,766,0,1,2,56811,92223,63014,-69,-222,969
05.10.2024 20:27:26:290,767,0,1,2,56815,92231,63017,-73,-226,971
05.10.2024 20:27:26:294,768,0,1,2,56812,92225,63014,-70,-227,971
05.10.2024 20:27:26:298,769,0,1,2,56820,92230,63015,-67,-229,964
05.10.2024 20:27:26:301,770,0,1,2,56821,92231,63017,-68,-226,972
05.10.2024 20:27:26:305,771,0,1,2,56823,92227,63015,-63,-226,974
05.10.2024 20:27:26:309,772,0,1,2,56831,92225,63012,-73,-227,964
05.10.2024 20:27:26:313,773,0,1,2,56825,92225,63012,-69,-228,972
05.10.2024 20:27:26:317,774,0,1,2,56833,92225,63008,-73,-231,967
05.10.2024 20:27:26:321,775,0,1,2,56835,92226,63004,-71,-232,975
05.10.2024 20:27:26:325,776,0,1,2,56835,92217,63007,-65,-230,971
05.10.2024 20:27:26:329,777,0,1,2,56847,92220,63010,-63,-234,968
05.10.2024 20:27:26:333,778,0,1,2,56844,92224,63012,-68,-232,969
05.10.2024 20:27:26:337,779,0,1,2,56849,92220,63008,-73,-231,965
05.10.2024 20:27:26:341,780,0,1,2,56853,92224,63009,-69,-235,969
05.10.2024 20:27:26:344,781,0,1,2,56850,92218,63006,-63,-230,967
05.10.2024 20:27:26:348,782,0,1,2,56858,92221,63010,-68,-227,974
05.10.2024 20:27:26:352,783,0,1,2,56856,92219,63005,-73,-226,969
05.10.2024 20:27:26:356,784,0,1,2,56858,92214,63004,-63,-228,969
05.10.2024 20:27:26:360,785,0,1,2,56867,92219,62998,-64,-229,967
05.10.2024 20:27:26:364,786,0,1,2,56866,92210,63002,-65,-235,969
05.10.2024 20:27:26:368,787,0,1,2,56871,92210,63005,-63,-227,962
05.10.2024 20:27:26:372,788,0,1,2,56879,92207,62993,-63,-229,971
05.10.2024 20:27:26:376,789,0,1,2,56878,92211,62997,-67,-236,970
05.10.2024 20:27:26:380,790,0,1,2,56879,92201,62997,-72,-227,968
05.10.2024 20:27:26:383,791,0,1,2,56889,92199,62992,-65,-222,968
05.10.2024 20:27:26:387,792,0,1,2,56885,92199,62987,-72,-226,969
05.10.2024 20:27:26:391,793,0,1,2,56890,92199,62988,-66,-228,975
05.10.2024 20:27:26:395,794,0,1,2,56889,92200,62985,-67,-229,964
05.10.2024 20:27:26:399,795,0,1,2,56897,92196,62986,-67,-242,970
05.10.2024 20:27:26:403,796,0,1,2,56900,92198,62985,-62,-240,961
05.10.2024 20:27:26:407,797,0,1,2,56894,92192,62986,-68,-234,971
05.10.2024 20:27:26:411,798,0,1,2,56900,92198,62990,-65,-234,969
05.10.2024 20:27:26:415,799,0,1,2,56900,92193,62986,-67,-229,975
05.10.2024 20:27:26:419,800,0,1,2,56902,92193,62985,-65,-238,975
05.10.2024 20:27:26:422,801,0,1,2,56907,92192,62984,-60,-241,970
05.10.2024 20:27:26:426,802,0,1,2,56909,92201,62991,-65,-236,967
05.10.2024 20:27:26:430,803,0,1,2,56907,92198,62990,-68,-230,966
05.10.2024 20:27:26:434,804,0,1,2,56917,92203,62993,-67,-229,969
05.10.2024 20:27:26:438,805,0,1,2,56915,92207,62995,-67,-219,964
05.10.2024 20:27:26:442,806,0,1,2,56922,92204,62997,-69,-225,971
05.10.2024 20:27:26:446,807,0,1,2,56925,92204,62994,-64,-224,973
05.10.2024 20:27:26:450,808,0,1,2,56933,92202,62990,-69,-223,966
05.10.2024 20:27:26:454,809,0,1,2,56930,92204,62994,-69,-229,971
05.10.2024 20:27:26:458,810,0,1,2,56933,92199,62988,-68,-233,970
05.10.2024 20:27:26:461,811,0,1,2,56937,92201,62988,-68,-229,969
05.10.2024 20:27:26:465,812,0,1,2,56940,92201,62988,-67,-226,968
05.10.2024 20:27:26:469,813,0,1,2,56943,92199,62983,-69,-235,968
05.10.2024 20:27:26:473,814,0,1,2,56940,92189,62988,-69,-236,966
05.10.2024 20:27:26:477,815,0,1,2,56946,92197,62983,-63,-231,970
05.10.2024 20:27:26:481,816,0,1,2,56949,92192,62983,-70,-231,968
05.10.2024 20:27:26:485,817,0,1,2,56949,92194,62984,-68,-229,967
05.10.2024 20:27:26:489,818,0,1,2,56958,92194,62982,-67,-231,968
05.10.2024 20:27:26:493,819,0,1,2,56954,92192,62984,-67,-230,971
05.10.2024 20:27:26:497,820,0,1,2,56957,92194,62988,-64,-234,964
05.10.2024 20:27:26:501,821,0,1,2,56957,92193,62980,-70,-230,969
05.10.2024 20:27:26:504,822,0,1,2,56964,92194,62981,-65,-224,974
05.10.2024 20:27:26:508,823,0,1,2,56965,92191,62979,-70,-227,967
05.10.2024 20:27:26:512,824,0,1,2,56962,92192,62977,-68,-227,970
05.10.2024 20:27:26:516,825,0,1,2,56976,92185,62971,-66,-232,966
05.10.2024 20:27:26:520,826,0,1,2,56971,92182,62972,-74,-230,968
05.10.2024 20:27:26:524,827,0,1,2,56979,92185,62969,-66,-234,971
05.10.2024 20:27:26:528,828,0,1,2,56976,92179,62964,-65,-233,973
05.10.2024 20:27:26:532,829,0,1,2,56982,92183,62963,-61,-230,973
05.10.2024 20:27:26:536,830,0,1,2,56982,92174,62960,-65,-238,966
05.10.2024 20:27:26:540,831,0,1,2,56978,92170,62959,-68,-235,971
05.10.2024 20:27:26:543,832,0,1,2,56987,92164,62957,-68,-235,965
05.10.2024 20:27:26:547,833,0,1,2,56984,92171,62956,-69,-234,968
05.10.2024 20:27:26:551,834,0,1,2,56985,92168,62954,-70,-240,968
05.10.2024 20:27:26:555,835,0,1,2,56991,92159,62957,-71,-242,975
05.10.2024 20:27:26:559,836,0,1,2,56980,92166,62958,-68,-234,971
05.10.2024 20:27:26:563,837,0,1,2,56976,92162,62959,-71,-237,972
05.10.2024 20:27:26:567,838,0,1,2,56974,92166,62958,-74,-234,972
05.10.2024 20:27:26:571,839,0,1,2,56965,92161,62958,-73,-233,972
05.10.2024 20:27:26:575,840,0,1,2,56966,92164,62960,-70,-234,968
05.10.2024 20:27:26:579,841,0,1,2,56950,92169,62965,-63,-228,971
05.10.2024 20:27:26:582,842,0,1,2,56949,92169,62967,-72,-231,973
05.10.2024 20:27:26:586,843,0,1,2,56945,92170,62968,-69,-228,968
05.10.2024 20:27:26:590,844,0,1,2,56932,92177,62970,-69,-230,968
05.10.2024 20:27:26:594,845,0,1,2,56922,92175,62975,-69,-227,971
05.10.2024 20:27:26:598,846,0,1,2,56921,92178,62977,-70,-228,971
05.10.2024 20:27:26:602,847,0,1,2,56906,92177,62975,-72,-230,967
05.10.2024 20:27:26:606,848,0,1,2,56903,92173,62978,-71,-231,965
05.10.2024 20:27:26:610,849,0,1,2,56901,92175,62977,-68,-230,971
05.10.2024 20:27:26:614,850,0,1,2,56894,92170,62977,-69,-226,971
05.10.2024 20:27:26:618,851,0,1,2,56889,92171,62979,-73,-230,966
05.10.2024 20:27:26:621,852,0,1,2,56884,92171,62981,-72,-233,969
05.10.2024 20:27:26:625,853,0,1,2,56881,92173,62977,-70,-232,967
05.10.2024 20:27:26:629,854,0,1,2,56876,92175,62979,-69,-225,963
05.10.2024 20:27:26:633,855,0,1,2,56873,92176,62981,-70,-229,971
05.10.2024 20:27:26:637,856,0,1,2,56867,92173,62979,-67,-233,976
05.10.2024 20:27:26:641,857,0,1,2,56869,92171,62981,-70,-222,973
05.10.2024 20:27:26:645,858,0,1,2,56871,92175,62981,-69,-224,963
05.10.2024 20:27:26:649,859,0,1,2,56868,92176,62983,-71,-227,965
05.10.2024 20:27:26:653,860,0,1,2,56866,92173,62983,-66,-229,969
05.10.2024 20:27:26:657,861,0,1,2,56869,92174,62981,-70,-231,967
05.10.2024 20:27:26:661,862,0,1,2,56863,92168,62983,-11,-228,971
05.10.2024 20:27:26:664,863,0,1,2,56865,92171,62989,-65,-235,968
05.10.2024 20:27:26:668,864,0,1,2,56867,92165,62982,-66,-235,972
05.10.2024 20:27:26:672,865,0,1,2,56872,92171,62985,-72,-228,968
05.10.2024 20:27:26:676,866,0,1,2,56868,92173,62985,-65,-226,968
05.10.2024 20:27:26:680,867,0,1,2,56870,92176,62990,-71,-226,971
05.10.2024 20:27:26:684,868,0,1,2,56874,92174,62984,-71,-226,965
05.10.2024 20:27:26:688,869,0,1,2,56874,92175,62984,-73,-228,975
05.10.2024 20:27:26:692,870,0,1,2,56883,92177,62987,-73,-233,975
05.10.2024 20:27:26:696,871,0,1,2,56888,92180,62986,-67,-231,972
05.10.2024 20:27:26:700,872,0,1,2,56881,92175,62986,-69,-229,963
05.10.2024 20:27:26:703,873,0,1,2,56885,92182,62988,-70,-230,965
05.10.2024 20:27:26:707,874,0,1,2,56889,92173,62986,-68,-235,969
05.10.2024 20:27:26:711,875,0,1,2,56898,92177,62989,-66,-227,966
05.10.2024 20:27:26:715,876,0,1,2,56894,92178,62988,-70,-227,967
05.10.2024 20:27:26:719,877,0,1,2,56896,92178,62991,-62,-232,970
05.10.2024 20:27:26:723,878,0,1,2,56895,92179,62992,-68,-229,965
05.10.2024 20:27:26:727,879,0,1,2,56898,92180,62990,-72,-234,964
05.10.2024 20:27:26:731,880,0,1,2,56902,92179,62988,-71,-235,972
05.10.2024 20:27:26:735,881,0,1,2,56904,92179,62994,-70,-230,971
05.10.2024 20:27:26:739,882,0,1,2,56908,92179,62993,-68,-233,969
05.10.2024 20:27:26:742,883,0,1,2,56909,92184,62993,-67,-232,975
05.10.2024 20:27:26:746,884,0,1,2,56911,92189,62996,-71,-228,964
05.10.2024 20:27:26:750,885,0,1,2,56915,92186,62991,-65,-224,972
05.10.2024 20:27:26:754,886,0,1,2,56919,92187,62999,-69,-226,967
05.10.2024 20:27:26:758,887,0,1,2,56919,92192,62995,-66,-227,969
05.10.2024 20:27:26:762,888,0,1,2,56912,92188,62996,-71,-225,969
05.10.2024 20:27:26:766,889,0,1,2,56928,92192,62999,-72,-225,970
05.10.2024 20:27:26:770,890,0,1,2,56923,92195,63001,-71,-224,969
05.10.2024 20:27:26:774,891,0,1,2,56927,92194,62999,-73,-225,971
05.10.2024 20:27:26:778,892,0,1,2,56931,92197,63008,-67,-222,968
05.10.2024 20:27:26:781,893,0,1,2,56928,92201,63006,-64,-218,970
05.10.2024 20:27:26:785,894,0,1,2,56931,92198,63005,-67,-218,969
05.10.2024 20:27:26:789,895,0,1,2,56929,92197,63002,-72,-225,967
05.10.2024 20:27:26:793,896,0,1,2,56935,92194,63005,-70,-220,972
05.10.2024 20:27:26:797,897,0,1,2,56932,92193,62998,-72,-223,969
05.10.2024 20:27:26:801,898,0,1,2,56939,92188,63000,-66,-230,970
05.10.2024 20:27:26:805,899,0,1,2,56935,92188,62998,-72,-228,970
05.10.2024 20:27:26:809,900,0,1,2,56940,92183,62989,-66,-229,970
05.10.2024 20:27:26:813,901,0,1,2,56939,92183,62988,-67,-228,967
05.10.2024 20:27:26:817,902,0,1,2,56939,92181,62993,-70,-233,966
05.10.2024 20:27:26:821,903,0,1,2,56938,92182,62988,-73,-237,971
05.10.2024 20:27:26:824,904,0,1,2,56935,92179,62989,-71,-228,967
05.10.2024 20:27:26:828,905,0,1,2,56938,92177,62985,-71,-231,968
05.10.2024 20:27:26:832,906,0,1,2,56934,92176,62992,-67,-233,974
05.10.2024 20:27:26:836,907,0,1,2,56933,92178,62988,-65,-227,978
05.10.2024 20:27:26:840,908,0,1,2,56936,92175,62983,-67,-228,974
05.10.2024 20:27:26:844,909,0,1,2,56941,92180,62989,-70,-225,973
05.10.2024 20:27:26:848,910,0,1,2,56939,92171,62984,-67,-230,965
05.10.2024 20:27:26:852,911,0,1,2,56933,92177,62986,-72,-228,976
05.10.2024 20:27:26:856,912,0,1,2,56939,92170,62985,-65,-225,965
05.10.2024 20:27:26:860,913,0,1,2,56943,92171,62983,-69,-227,968
05.10.2024 20:27:26:863,914,0,1,2,56936,92173,62982,-69,-231,965
05.10.2024 20:27:26:867,915,0,1,2,56934,92167,62979,-72,-229,968
05.10.2024 20:27:26:871,916,0,1,2,56943,92168,62979,-69,-226,972
05.10.2024 20:27:26:875,917,0,1,2,56939,92164,62974,-62,-227,971
05.10.2024 20:27:26:879,918,0,1,2,56941,92166,62975,-67,-228,968
05.10.2024 20:27:26:883,919,0,1,2,56934,92161,62975,-70,-226,972
05.10.2024 20:27:26:887,920,0,1,2,56936,92161,62971,-66,-233,976
05.10.2024 20:27:26:891,921,0,1,2,56937,92159,62971,-68,-224,967
05.10.2024 20:27:26:895,922,0,1,2,56936,92154,62965,-64,-228,967
05.10.2024 20:27:26:899,923,0,1,2,56936,92153,62968,-68,-231,970
05.10.2024 20:27:26:902,924,0,1,2,56944,92150,62966,-60,-231,967
05.10.2024 20:27:26:906,925,0,1,2,56943,92151,62963,-66,-232,972
05.10.2024 20:27:26:910,926,0,1,2,56944,92151,62965,-72,-227,963
05.10.2024 20:27:26:914,927,0,1,2,56944,92152,62963,-64,-225,966
05.10.2024 20:27:26:918,928,0,1,2,56941,92141,62960,-69,-224,971
05.10.2024 20:27:26:922,929,0,1,2,56940,92147,62957,-68,-231,972
05.10.2024 20:27:26:926,930,0,1,2,56943,92141,62961,-67,-230,972
05.10.2024 20:27:26:930,931,0,1,2,56946,92137,62953,-69,-229,976
05.10.2024 20:27:26:934,932,0,1,2,56951,92137,62955,-68,-231,972
05.10.2024 20:27:26:938,933,0,1,2,56952,92138,62952,-66,-231,971
05.10.2024 20:27:26:941,934,0,1,2,56952,92136,62953,-69,-229,970
05.10.2024 20:27:26:945,935,0,1,2,56957,92130,62949,-67,-234,972
05.10.2024 20:27:26:949,936,0,1,2,56958,92131,62947,-68,-224,965
05.10.2024 20:27:26:953,937,0,1,2,56960,92132,62949,-65,-232,970
05.10.2024 20:27:26:957,938,0,1,2,56971,92126,62951,-70,-231,964
05.10.2024 20:27:26:961,939,0,1,2,56967,92130,62943,-65,-233,968
05.10.2024 20:27:26:965,940,0,1,2,56973,92131,62946,-69,-231,969
05.10.2024 20:27:26:969,941,0,1,2,56975,92126,62945,-70,-226,964
05.10.2024 20:27:26:973,942,0,1,2,56981,92126,62947,-71,-229,962
05.10.2024 20:27:26:977,943,0,1,2,56978,92125,62941,-75,-232,971
05.10.2024 20:27:26:981,944,0,1,2,56979,92122,62942,-73,-232,964
05.10.2024 20:27:26:984,945,0,1,2,56984,92121,62941,-72,-228,974
05.10.2024 20:27:26:988,946,0,1,2,56986,92124,62937,-68,-232,970
05.10.2024 20:27:26:992,947,0,1,2,56989,92116,62937,-65,-229,972
05.10.2024 20:27:26:996,948,0,1,2,56994,92116,62935,-65,-231,964
05.10.2024 20:27:27:0,949,0,1,2,56993,92118,62933,-66,-233,969
05.10.2024 20:27:27:4,950,0,1,2,56999,92113,62932,-74,-236,972
05.10.2024 20:27:27:8,951,0,1,2,57002,92112,62928,-69,-233,971
05.10.2024 20:27:27:12,952,0,1,2,57004,92110,62930,-69,-231,968
05.10.2024 20:27:27:16,953,0,1,2,57013,92109,62930,-72,-234,968
05.10.2024 20:27:27:20,954,0,1,2,57017,92114,62928,-68,-228,970
05.10.2024 20:27:27:23,955,0,1,2,57012,92109,62930,-66,-232,961
05.10.2024 20:27:27:27,956,0,1,2,57014,92113,62931,-67,-226,970
05.10.2024 20:27:27:31,957,0,1,2,57019,92110,62931,-70,-227,967
05.10.2024 20:27:27:35,958,0,1,2,57021,92118,62930,-73,-227,973
05.10.2024 20:27:27:39,959,0,1,2,57024,92115,62930,-71,-230,970
05.10.2024 20:27:27:43,960,0,1,2,57036,92116,62931,-71,-230,970
05.10.2024 20:27:27:47,961,0,1,2,57036,92113,62932,-67,-230,966
05.10.2024 20:27:27:51,962,0,1,2,57033,92113,62934,-67,-229,966
05.10.2024 20:27:27:55,963,0,1,2,57041,92117,62929,-75,-231,974
05.10.2024 20:27:27:59,964,0,1,2,57039,92115,62930,-72,-226,973
05.10.2024 20:27:27:62,965,0,1,2,57044,92117,62931,-79,-225,967
05.10.2024 20:27:27:66,966,0,1,2,57038,92117,62931,-67,-224,969
05.10.2024 20:27:27:70,967,0,1,2,57049,92123,62930,-74,-226,967
05.10.2024 20:27:27:74,968,0,1,2,57050,92114,62927,-71,-228,974
05.10.2024 20:27:27:78,969,0,1,2,57051,92113,62928,-73,-231,976
05.10.2024 20:27:27:82,970,0,1,2,57053,92111,62924,-72,-231,970
05.10.2024 20:27:27:86,971,0,1,2,57059,92109,62922,-65,-232,970
05.10.2024 20:27:27:90,972,0,1,2,57060,92106,62918,-67,-231,969
05.10.2024 20:27:27:94,973,0,1,2,57063,92107,62920,-65,-235,972
05.10.2024 20:27:27:98,974,0,1,2,57064,92103,62919,-69,-230,966
05.10.2024 20:27:27:102,975,0,1,2,57068,92101,62915,-71,-233,965
05.10.2024 20:27:27:105,976,0,1,2,57070,92102,62914,-71,-229,970
05.10.2024 20:27:27:109,977,0,1,2,57075,92098,62914,-68,-227,968
05.10.2024 20:27:27:113,978,0,1,2,57070,92095,62911,-68,-231,972
05.10.2024 20:27:27:117,979,0,1,2,57083,92095,62910,-76,-226,966
05.10.2024 20:27:27:121,980,0,1,2,57083,92093,62912,-68,-227,968
05.10.2024 20:27:27:125,981,0,1,2,57087,92095,62910,-65,-227,970
05.10.2024 20:27:27:129,982,0,1,2,57093,92098,62913,-73,-226,966
05.10.2024 20:27:27:133,983,0,1,2,57094,92095,62912,-70,-231,975
05.10.2024 20:27:27:137,984,0,1,2,57099,92092,62909,-66,-227,973
05.10.2024 20:27:27:141,985,0,1,2,57100,92097,62910,-61,-234,969
05.10.2024 20:27:27:144,986,0,1,2,57106,92098,62908,-65,-231,969
05.10.2024 20:27:27:148,987,0,1,2,57102,92095,62913,-70,-232,964
05.10.2024 20:27:27:152,988,0,1,2,57108,92098,62911,-71,-231,966
05.10.2024 20:27:27:156,989,0,1,2,57115,92097,62911,-68,-231,970
05.10.2024 20:27:27:160,990,0,1,2,57111,92097,62911,-65,-228,966
05.10.2024 20:27:27:164,991,0,1,2,57123,92099,62913,-68,-231,969
05.10.2024 20:27:27:168,992,0,1,2,57126,92094,62913,-64,-224,970
05.10.2024 20:27:27:172,993,0,1,2,57132,92094,62911,-67,-226,968
05.10.2024 20:27:27:176,994,0,1,2,57134,92104,62914,-71,-225,967
05.10.2024 20:27:27:180,995,0,1,2,57136,92096,62912,-69,-233,970
05.10.2024 20:27:27:183,996,0,1,2,57137,92097,62912,-74,-230,975
05.10.2024 20:27:27:187,997,0,1,2,57139,92095,62909,-68,-231,967
05.10.2024 20:27:27:191,998,0,1,2,57146,92090,62911,-66,-230,968
05.10.2024 20:27:27:195,999,0,1,2,57146,92094,62912,-68,-234,969
05.10.2024 20:27:27:199,1000,0,1,2,57148,92097,62916,-70,-233,963
05.10.2024 20:27:27:203,1001,0,1,2,57151,92096,62911,-73,-230,970
05.10.2024 20:27:27:207,1002,0,1,2,57152,92097,62915,-71,-227,964
05.10.2024 20:27:27:211,1003,0,1,2,57152,92098,62914,-70,-231,975
05.10.2024 20:27:27:215,1004,0,1,2,57149,92100,62915,-66,-235,973
05.10.2024 20:27:27:219,1005,0,1,2,57163,92102,62919,-70,-230,961
05.10.2024 20:27:27:222,1006,0,1,2,57161,92100,62918,-68,-232,975
05.10.2024 20:27:27:226,1007,0,1,2,57166,92102,62919,-67,-227,962
05.10.2024 20:27:27:230,1008,0,1,2,57159,92104,62921,-73,-227,974
05.10.2024 20:27:27:234,1009,0,1,2,57168,92104,62919,-75,-227,974
05.10.2024 20:27:27:238,1010,0,1,2,57173,92104,62921,-76,-227,968
05.10.2024 20:27:27:242,1011,0,1,2,57173,92102,62915,-73,-228,968
05.10.2024 20:27:27:246,1012,0,1,2,57175,92111,62915,-75,-228,969
05.10.2024 20:27:27:250,1013,0,1,2,57177,92095,62914,-70,-231,964
05.10.2024 20:27:27:254,1014,0,1,2,57182,92101,62917,-65,-239,970
05.10.2024 20:27:27:258,1015,0,1,2,57182,92095,62909,-71,-229,970
05.10.2024 20:27:27:262,1016,0,1,2,57184,92099,62909,-64,-227,972
05.10.2024 20:27:27:265,1017,0,1,2,57185,92098,62908,-76,-232,971
05.10.2024 20:27:27:269,1018,0,1,2,57187,92097,62909,-67,-230,964
05.10.2024 20:27:27:273,1019,0,1,2,57192,92093,62903,-68,-233,967
05.10.2024 20:27:27:277,1020,0,1,2,57193,92095,62903,-67,-229,963
05.10.2024 20:27:27:281,1021,0,1,2,57198,92095,62905,-70,-226,967
05.10.2024 20:27:27:285,1022,0,1,2,57197,92092,62906,-67,-225,971
05.10.2024 20:27:27:289,1023,0,1,2,57199,92088,62902,-65,-228,968
05.10.2024 20:27:27:293,1024,0,1,2,57195,92090,62900,-69,-229,968
05.10.2024 20:27:27:297,1025,0,1,2,57200,92088,62899,-65,-232,973
05.10.2024 20:27:27:301,1026,0,1,2,57201,92089,62898,-66,-234,975
05.10.2024 20:27:27:304,1027,0,1,2,57209,92088,62893,-68,-226,969
05.10.2024 20:27:27:308,1028,0,1,2,57207,92087,62896,-66,-231,971
05.10.2024 20:27:27:312,1029,0,1,2,57209,92081,62892,-62,-229,967
05.10.2024 20:27:27:316,1030,0,1,2,57214,92078,62894,-73,-227,965
05.10.2024 20:27:27:320,1031,0,1,2,57211,92079,62887,-66,-225,969
05.10.2024 20:27:27:324,1032,0,1,2,57219,92077,62887,-68,-227,969
05.10.2024 20:27:27:328,1033,0,1,2,57215,92080,62886,-67,-230,966
05.10.2024 20:27:27:332,1034,0,1,2,57222,92076,62884,-75,-229,971
05.10.2024 20:27:27:336,1035,0,1,2,57225,92077,62880,-67,-236,970
05.10.2024 20:27:27:340,1036,0,1,2,57215,92077,62883,-69,-235,969
05.10.2024 20:27:27:343,1037,0,1,2,57220,92076,62884,-69,-236,969
05.10.2024 20:27:27:347,1038,0,1,2,57215,92073,62883,-73,-232,971
05.10.2024 20:27:27:351,1039,0,1,2,57213,92076,62880,-75,-228,972
05.10.2024 20:27:27:355,1040,0,1,2,57211,92069,62884,-70,-231,963
05.10.2024 20:27:27:359,1041,0,1,2,57210,92074,62880,-71,-240,966
05.10.2024 20:27:27:363,1042,0,1,2,57211,92072,62881,-71,-237,965
05.10.2024 20:27:27:367,1043,0,1,2,57201,92068,62881,-70,-234,970
05.10.2024 20:27:27:371,1044,0,1,2,57195,92072,62883,-68,-233,960
05.10.2024 20:27:27:375,1045,0,1,2,57194,92077,62879,-72,-234,967
05.10.2024 20:27:27:379,1046,0,1,2,57185,92069,62881,-68,-230,964
05.10.2024 20:27:27:382,1047,0,1,2,57176,92067,62883,-73,-235,967
05.10.2024 20:27:27:386,1048,0,1,2,57170,92066,62883,-73,-233,970
05.10.2024 20:27:27:390,1049,0,1,2,57162,92066,62883,-73,-235,967
05.10.2024 20:27:27:394,1050,0,1,2,57159,92060,62884,-69,-229,964
05.10.2024 20:27:27:398,1051,0,1,2,57147,92065,62882,-69,-232,964
05.10.2024 20:27:27:402,1052,0,1,2,57149,92064,62883,-66,-231,965
05.10.2024 20:27:27:406,1053,0,1,2,57139,92062,62883,-71,-231,965
05.10.2024 20:27:27:410,1054,0,1,2,57141,92063,62884,-68,-235,967
05.10.2024 20:27:27:414,1055,0,1,2,57129,92059,62878,-67,-226,966
05.10.2024 20:27:27:418,1056,0,1,2,57127,92056,62884,-67,-232,967
05.10.2024 20:27:27:422,1057,0,1,2,57122,92055,62880,-70,-227,970
05.10.2024 20:27:27:425,1058,0,1,2,57121,92055,62880,-71,-228,971
05.10.2024 20:27:27:429,1059,0,1,2,57119,92054,62884,-66,-229,969
05.10.2024 20:27:27:433,1060,0,1,2,57105,92057,62881,-69,-226,969
05.10.2024 20:27:27:437,1061,0,1,2,57107,92057,62882,-72,-228,966
05.10.2024 20:27:27:441,1062,0,1,2,57100,92059,62883,-66,-226,973
05.10.2024 20:27:27:445,1063,0,1,2,57098,92053,62881,-75,-228,967
05.10.2024 20:27:27:449,1064,0,1,2,57097,92052,62876,-69,-237,972
05.10.2024 20:27:27:453,1065,0,1,2,57094,92047,62875,-65,-229,972
05.10.2024 20:27:27:457,1066,0,1,2,57088,92047,62878,-68,-232,966
05.10.2024 20:27:27:461,1067,0,1,2,57091,92045,62879,-70,-232,972
05.10.2024 20:27:27:464,1068,0,1,2,57090,92047,62873,-65,-229,973
05.10.2024 20:27:27:468,1069,0,1,2,57092,92041,62869,-66,-230,965
05.10.2024 20:27:27:472,1070,0,1,2,57093,92043,62871,-72,-233,966
05.10.2024 20:27:27:476,1071,0,1,2,57091,92041,62866,-67,-230,972
05.10.2024 20:27:27:480,1072,0,1,2,57093,92040,62863,-66,-230,967
05.10.2024 20:27:27:484,1073,0,1,2,57089,92031,62863,-64,-226,969
05.10.2024 20:27:27:488,1074,0,1,2,57091,92037,62863,-67,-225,965
05.10.2024 20:27:27:492,1075,0,1,2,57097,92036,62858,-68,-234,966
05.10.2024 20:27:27:496,1076,0,1,2,57095,92032,62859,-69,-229,970
05.10.2024 20:27:27:500,1077,0,1,2,57101,92029,62852,-66,-230,968
05.10.2024 20:27:27:503,1078,0,1,2,57108,92025,62853,-64,-235,971
05.10.2024 20:27:27:507,1079,0,1,2,57111,92026,62856,-63,-235,964
05.10.2024 20:27:27:511,1080,0,1,2,57110,92025,62851,-67,-232,961
05.10.2024 20:27:27:515,1081,0,1,2,57108,92020,62848,-62,-239,967
05.10.2024 20:27:27:519,1082,0,1,2,57110,92028,62848,-70,-241,971
05.10.2024 20:27:27:523,1083,0,1,2,57105,92022,62851,-71,-241,964
05.10.2024 20:27:27:527,1084,0,1,2,57117,92022,62852,-65,-237,970
05.10.2024 20:27:27:531,1085,0,1,2,57115,92017,62850,-71,-236,962
05.10.2024 20:27:27:535,1086,0,1,2,57119,92023,62851,-67,-233,968
05.10.2024 20:27:27:539,1087,0,1,2,57113,92020,62851,-68,-233,964
05.10.2024 20:27:27:542,1088,0,1,2,57119,92024,62847,-65,-238,968
05.10.2024 20:27:27:546,1089,0,1,2,57124,92021,62851,-61,-232,968
05.10.2024 20:27:27:550,1090,0,1,2,57116,92023,62849,-68,-232,967
05.10.2024 20:27:27:554,1091,0,1,2,57124,92025,62850,-65,-234,968
05.10.2024 20:27:27:558,1092,0,1,2,57127,92028,62854,-67,-230,966
05.10.2024 20:27:27:562,1093,0,1,2,57132,92027,62852,-65,-231,969
05.10.2024 20:27:27:566,1094,0,1,2,57125,92027,62851,-65,-229,967
05.10.2024 20:27:27:570,1095,0,1,2,57124,92036,62851,-66,-228,966
05.10.2024 20:27:27:574,1096,0,1,2,57132,92031,62854,-70,-228,964
05.10.2024 20:27:27:578,1097,0,1,2,57119,92028,62856,-66,-227,971
05.10.2024 20:27:27:582,1098,0,1,2,57130,92031,62851,-70,-228,969
05.10.2024 20:27:27:585,1099,0,1,2,57129,92028,62852,-62,-226,972
05.10.2024 20:27:27:589,1100,0,1,2,57136,92030,62852,-67,-231,977
05.10.2024 20:27:27:593,1101,0,1,2,57130,92026,62847,-69,-233,974
05.10.2024 20:27:27:597,1102,0,1,2,57133,92026,62845,-67,-235,973
05.10.2024 20:27:27:601,1103,0,1,2,57135,92025,62845,-67,-238,968
05.10.2024 20:27:27:605,1104,0,1,2,57140,92024,62843,-63,-233,969
05.10.2024 20:27:27:609,1105,0,1,2,57131,92022,62842,-70,-233,970
05.10.2024 20:27:27:613,1106,0,1,2,57130,92018,62842,-68,-233,963
05.10.2024 20:27:27:617,1107,0,1,2,57132,92024,62841,-73,-232,966
05.10.2024 20:27:27:621,1108,0,1,2,57134,92023,62841,-67,-234,971
05.10.2024 20:27:27:624,1109,0,1,2,57127,92020,62844,-69,-234,967
05.10.2024 20:27:27:628,1110,0,1,2,57128,92018,62842,-69,-234,967
05.10.2024 20:27:27:632,1111,0,1,2,57128,92018,62841,-73,-230,964
05.10.2024 20:27:27:636,1112,0,1,2,57130,92018,62841,-67,-233,973
05.10.2024 20:27:27:640,1113,0,1,2,57124,92014,62837,-68,-231,968
05.10.2024 20:27:27:644,1114,0,1,2,57127,92012,62837,-68,-235,969
05.10.2024 20:27:27:648,1115,0,1,2,57123,92013,62834,-70,-233,972
05.10.2024 20:27:27:652,1116,0,1,2,57118,92009,62835,-73,-235,966
05.10.2024 20:27:27:656,1117,0,1,2,57115,92003,62827,-73,-233,971
05.10.2024 20:27:27:660,1118,0,1,2,57124,92002,62826,-70,-238,974
05.10.2024 20:27:27:663,1119,0,1,2,57117,92000,62822,-65,-238,966
05.10.2024 20:27:27:667,1120,0,1,2,57129,92001,62821,-68,-240,969
05.10.2024 20:27:27:671,1121,0,1,2,57118,91997,62821,-65,-237,961
05.10.2024 20:27:27:675,1122,0,1,2,57116,91998,62821,-66,-233,965
05.10.2024 20:27:27:679,1123,0,1,2,57113,91992,62815,-64,-235,968
05.10.2024 20:27:27:683,1124,0,1,2,57119,91996,62821,-67,-233,967
05.10.2024 20:27:27:687,1125,0,1,2,57117,91996,62820,-68,-236,969
05.10.2024 20:27:27:691,1126,0,1,2,57108,91998,62816,-64,-232,968
05.10.2024 20:27:27:695,1127,0,1,2,57113,92000,62819,-67,-233,966
05.10.2024 20:27:27:699,1128,0,1,2,57111,91989,62818,-64,-228,969
05.10.2024 20:27:27:702,1129,0,1,2,57112,91991,62815,-66,-228,968
05.10.2024 20:27:27:706,1130,0,1,2,57107,91995,62819,-69,-233,966
05.10.2024 20:27:27:710,1131,0,1,2,57110,91995,62817,-73,-233,969
05.10.2024 20:27:27:714,1132,0,1,2,57101,91992,62815,-71,-234,967
05.10.2024 20:27:27:718,1133,0,1,2,57102,91988,62817,-63,-234,969
05.10.2024 20:27:27:722,1134,0,1,2,57108,91987,62808,-57,-232,963
05.10.2024 20:27:27:726,1135,0,1,2,57104,91991,62812,-57,-232,963
05.10.2024 20:27:27:730,1136,0,1,2,57113,91991,62810,-67,-230,965
05.10.2024 20:27:27:734,1137,0,1,2,57108,91990,62812,-65,-235,973
05.10.2024 20:27:27:738,1138,0,1,2,57112,91991,62810,-65,-238,968
05.10.2024 20:27:27:742,1139,0,1,2,57106,91984,62807,-66,-233,971
05.10.2024 20:27:27:745,1140,0,1,2,57109,91983,62806,-64,-234,966
05.10.2024 20:27:27:749,1141,0,1,2,57114,91984,62805,-66,-235,967
05.10.2024 20:27:27:753,1142,0,1,2,57116,91982,62802,-66,-230,971
05.10.2024 20:27:27:757,1143,0,1,2,57116,91979,62800,-62,-229,963
05.10.2024 20:27:27:761,1144,0,1,2,57120,91976,62802,-66,-234,963
05.10.2024 20:27:27:765,1145,0,1,2,57121,91978,62800,-67,-235,971
05.10.2024 20:27:27:769,1146,0,1,2,57120,91974,62801,-72,-248,969
05.10.2024 20:27:27:773,1147,0,1,2,57126,91977,62797,-66,-237,968
05.10.2024 20:27:27:777,1148,0,1,2,57123,91979,62793,-66,-236,964
05.10.2024 20:27:27:781,1149,0,1,2,57126,91975,62795,-67,-236,971
05.10.2024 20:27:27:784,1150,0,1,2,57125,91976,62792,-68,-236,962
05.10.2024 20:27:27:788,1151,0,1,2,57128,91973,62792,-68,-240,965
05.10.2024 20:27:27:792,1152,0,1,2,57141,91971,62790,-68,-237,968
05.10.2024 20:27:27:796,1153,0,1,2,57130,91972,62792,-64,-239,968
05.10.2024 20:27:27:800,1154,0,1,2,57134,91973,62793,-68,-237,968
05.10.2024 20:27:27:804,1155,0,1,2,57132,91974,62789,-67,-235,965
05.10.2024 20:27:27:808,1156,0,1,2,57143,91974,62791,-69,-235,966
05.10.2024 20:27:27:812,1157,0,1,2,57137,91973,62789,-66,-231,968
05.10.2024 20:27:27:816,1158,0,1,2,57145,91974,62791,-71,-233,963
05.10.2024 20:27:27:820,1159,0,1,2,57140,91973,62789,-66,-233,964
05.10.2024 20:27:27:823,1160,0,1,2,57141,91974,62788,-66,-233,964
05.10.2024 20:27:27:827,1161,0,1,2,57138,91970,62787,-65,-239,967
05.10.2024 20:27:27:831,1162,0,1,2,57140,91971,62783,-62,-242,963
05.10.2024 20:27:27:835,1163,0,1,2,57144,91967,62784,-66,-233,965
05.10.2024 20:27:27:839,1164,0,1,2,57147,91970,62783,-68,-240,965
05.10.2024 20:27:27:843,1165,0,1,2,57145,91970,62787,-68,-232,971
05.10.2024 20:27:27:847,1166,0,1,2,57148,91968,62788,-72,-236,970
05.10.2024 20:27:27:851,1167,0,1,2,57153,91972,62781,-68,-238,966
05.10.2024 20:27:27:855,1168,0,1,2,57157,91973,62784,-73,-232,964
05.10.2024 20:27:27:859,1169,0,1,2,57153,91968,62788,-70,-233,966
05.10.2024 20:27:27:863,1170,0,1,2,57160,91969,62787,-65,-236,968
05.10.2024 20:27:27:866,1171,0,1,2,57157,91972,62785,-62,-225,969
05.10.2024 20:27:27:870,1172,0,1,2,57163,91972,62781,-63,-235,971
05.10.2024 20:27:27:874,1173,0,1,2,57159,91971,62781,-66,-235,964
05.10.2024 20:27:27:878,1174,0,1,2,57161,91971,62782,-66,-239,971
05.10.2024 20:27:27:882,1175,0,1,2,57160,91971,62782,-68,-236,968
05.10.2024 20:27:27:886,1176,0,1,2,57158,91970,62779,-69,-235,966
05.10.2024 20:27:27:890,1177,0,1,2,57167,91973,62780,-69,-238,965
05.10.2024 20:27:27:894,1178,0,1,2,57170,91967,62778,-67,-233,969
05.10.2024 20:27:27:898,1179,0,1,2,57167,91969,62778,-63,-238,971
05.10.2024 20:27:27:902,1180,0,1,2,57173,91968,62780,-69,-240,967
05.10.2024 20:27:27:905,1181,0,1,2,57176,91962,62779,-64,-239,960
05.10.2024 20:27:27:909,1182,0,1,2,57180,91964,62776,-70,-238,968
05.10.2024 20:27:27:913,1183,0,1,2,57177,91967,62773,-66,-233,967
05.10.2024 20:27:27:917,1184,0,1,2,57179,91964,62773,-69,-238,969
05.10.2024 20:27:27:921,1185,0,1,2,57186,91970,62775,-69,-238,969
05.10.2024 20:27:27:925,1186,0,1,2,57188,91962,62773,-73,-238,969
05.10.2024 20:27:27:929,1187,0,1,2,57190,91966,62777,-68,-241,968
05.10.2024 20:27:27:933,1188,0,1,2,57188,91966,62772,-69,-238,964
05.10.2024 20:27:27:937,1189,0,1,2,57188,91963,62772,-69,-238,969
05.10.2024 20:27:27:941,1190,0,1,2,57195,91965,62770,-69,-236,967
05.10.2024 20:27:27:944,1191,0,1,2,57198,91964,62769,-64,-241,967
05.10.2024 20:27:27:948,1192,0,1,2,57196,91967,62769,-65,-235,966
05.10.2024 20:27:27:952,1193,0,1,2,57204,91967,62769,-66,-237,963
05.10.2024 20:27:27:956,1194,0,1,2,57201,91968,62770,-64,-236,963
05.10.2024 20:27:27:960,1195,0,1,2,57205,91968,62774,-65,-233,966
05.10.2024 20:27:27:964,1196,0,1,2,57203,91965,62770,-65,-236,963
05.10.2024 20:27:27:968,1197,0,1,2,57206,91965,62773,-66,-233,959
05.10.2024 20:27:27:972,1198,0,1,2,57200,91967,62775,-67,-235,969
05.10.2024 20:27:27:976,1199,0,1,2,57203,91967,62778,-63,-235,970
05.10.2024 20:27:27:980,1200,0,1,2,57204,91977,62778,-69,-232,970
05.10.2024 20:27:27:983,1201,0,1,2,57203,91972,62777,-68,-230,965
05.10.2024 20:27:27:987,1202,0,1,2,57212,91973,62779,-65,-234,971
05.10.2024 20:27:27:991,1203,0,1,2,57215,91973,62778,-60,-239,967
05.10.2024 20:27:27:995,1204,0,1,2,57208,91974,62778,-63,-235,965
05.10.2024 20:27:27:999,1205,0,1,2,57218,91972,62775,-70,-231,967
05.10.2024 20:27:28:3,1206,0,1,2,57211,91975,62775,-64,-231,968
05.10.2024 20:27:28:7,1207,0,1,2,57214,91973,62776,-74,-226,970
05.10.2024 20:27:28:11,1208,0,1,2,57217,91974,62775,-64,-233,969
05.10.2024 20:27:28:15,1209,0,1,2,57218,91976,62771,-64,-235,967
05.10.2024 20:27:28:19,1210,0,1,2,57218,91971,62767,-64,-235,967
05.10.2024 20:27:28:23,1211,0,1,2,57220,91963,62770,-64,-235,966
05.10.2024 20:27:28:26,1212,0,1,2,57220,91970,62767,-69,-232,964
05.10.2024 20:27:28:30,1213,0,1,2,57223,91969,62765,-68,-231,969
05.10.2024 20:27:28:34,1214,0,1,2,57220,91968,62767,-71,-233,965
05.10.2024 20:27:28:38,1215,0,1,2,57223,91964,62762,-66,-235,969
05.10.2024 20:27:28:42,1216,0,1,2,57221,91956,62758,-67,-237,967
05.10.2024 20:27:28:46,1217,0,1,2,57229,91959,62762,-72,-236,967
05.10.2024 20:27:28:50,1218,0,1,2,57227,91954,62755,-68,-233,968
05.10.2024 20:27:28:54,1219,0,1,2,57225,91950,62759,-67,-239,964
05.10.2024 20:27:28:58,1220,0,1,2,57228,91958,62748,-63,-237,968
05.10.2024 20:27:28:62,1221,0,1,2,57224,91955,62749,-68,-244,968
05.10.2024 20:27:28:65,1222,0,1,2,57228,91951,62750,-68,-235,972
05.10.2024 20:27:28:69,1223,0,1,2,57226,91949,62747,-64,-235,969
05.10.2024 20:27:28:73,1224,0,1,2,57235,91942,62746,-68,-232,969
05.10.2024 20:27:28:77,1225,0,1,2,57227,91949,62742,-69,-233,966
05.10.2024 20:27:28:81,1226,0,1,2,57238,91943,62742,-63,-238,960
05.10.2024 20:27:28:85,1227,0,1,2,57238,91931,62735,-67,-242,968
05.10.2024 20:27:28:89,1228,0,1,2,57239,91934,62739,-63,-243,961
05.10.2024 20:27:28:93,1229,0,1,2,57243,91942,62734,-64,-233,964
05.10.2024 20:27:28:97,1230,0,1,2,57248,91933,62734,-65,-237,967
05.10.2024 20:27:28:101,1231,0,1,2,57252,91933,62731,-70,-239,965
05.10.2024 20:27:28:104,1232,0,1,2,57247,91929,62732,-71,-240,965
05.10.2024 20:27:28:108,1233,0,1,2,57246,91932,62731,-72,-242,966
05.10.2024 20:27:28:112,1234,0,1,2,57248,91932,62729,-72,-239,968
05.10.2024 20:27:28:116,1235,0,1,2,57246,91930,62731,-72,-239,968
05.10.2024 20:27:28:120,1236,0,1,2,57237,91931,62731,-70,-238,964
05.10.2024 20:27:28:124,1237,0,1,2,57246,91930,62727,-70,-239,976
05.10.2024 20:27:28:128,1238,0,1,2,57238,91922,62727,-71,-239,969
05.10.2024 20:27:28:132,1239,0,1,2,57230,91927,62733,-67,-241,967
05.10.2024 20:27:28:136,1240,0,1,2,57227,91933,62729,-67,-242,964
05.10.2024 20:27:28:140,1241,0,1,2,57224,91930,62730,-66,-237,966
05.10.2024 20:27:28:143,1242,0,1,2,57222,91933,62730,-66,-236,968
05.10.2024 20:27:28:147,1243,0,1,2,57214,91929,62725,-71,-230,970
05.10.2024 20:27:28:151,1244,0,1,2,57203,91924,62729,-73,-235,964
05.10.2024 20:27:28:155,1245,0,1,2,57201,91931,62730,-69,-236,967
05.10.2024 20:27:28:159,1246,0,1,2,57198,91927,62732,-62,-239,968
05.10.2024 20:27:28:163,1247,0,1,2,57186,91927,62732,-68,-235,968
05.10.2024 20:27:28:167,1248,0,1,2,57182,91925,62729,-65,-237,962
05.10.2024 20:27:28:171,1249,0,1,2,57175,91926,62729,-66,-238,971
05.10.2024 20:27:28:175,1250,0,1,2,57170,91927,62728,-64,-240,972
05.10.2024 20:27:28:179,1251,0,1,2,57161,91925,62727,-64,-240,970
05.10.2024 20:27:28:183,1252,0,1,2,57161,91922,62727,-68,-235,962
05.10.2024 20:27:28:186,1253,0,1,2,57154,91921,62731,-67,-234,966
05.10.2024 20:27:28:190,1254,0,1,2,57151,91914,62729,-67,-234,966
05.10.2024 20:27:28:194,1255,0,1,2,57148,91912,62724,-61,-242,967
05.10.2024 20:27:28:198,1256,0,1,2,57139,91912,62724,-63,-236,962
05.10.2024 20:27:28:202,1257,0,1,2,57145,91911,62722,-63,-235,970
05.10.2024 20:27:28:206,1258,0,1,2,57139,91906,62726,-63,-236,970
05.10.2024 20:27:28:210,1259,0,1,2,57141,91908,62726,-59,-242,965
05.10.2024 20:27:28:214,1260,0,1,2,57135,91907,62725,-59,-242,965
05.10.2024 20:27:28:218,1261,0,1,2,57132,91910,62725,-64,-241,968
05.10.2024 20:27:28:222,1262,0,1,2,57128,91907,62720,-57,-235,974
05.10.2024 20:27:28:225,1263,0,1,2,57128,91908,62723,-60,-235,966
05.10.2024 20:27:28:229,1264,0,1,2,57126,91904,62722,-64,-238,967
05.10.2024 20:27:28:233,1265,0,1,2,57124,91908,62721,-61,-237,969
05.10.2024 20:27:28:237,1266,0,1,2,57128,91909,62722,-62,-237,969
05.10.2024 20:27:28:241,1267,0,1,2,57124,91904,62725,-60,-234,967
05.10.2024 20:27:28:245,1268,0,1,2,57132,91908,62724,-63,-236,971
05.10.2024 20:27:28:249,1269,0,1,2,57134,91907,62722,-64,-234,966
05.10.2024 20:27:28:253,1270,0,1,2,57135,91905,62722,-69,-233,964
05.10.2024 20:27:28:257,1271,0,1,2,57138,91908,62725,-59,-237,968
05.10.2024 20:27:28:261,1272,0,1,2,57137,91904,62720,-69,-240,970
05.10.2024 20:27:28:264,1273,0,1,2,57145,91905,62720,-65,-244,970
05.10.2024 20:27:28:268,1274,0,1,2,57147,91900,62718,-66,-242,970
05.10.2024 20:27:28:272,1275,0,1,2,57152,91900,62717,-67,-239,968
05.10.2024 20:27:28:276,1276,0,1,2,57154,91904,62717,-66,-238,970
05.10.2024 20:27:28:280,1277,0,1,2,57162,91902,62717,-65,-239,970
05.10.2024 20:27:28:284,1278,0,1,2,57155,91904,62719,-68,-243,967
05.10.2024 20:27:28:288,1279,0,1,2,57166,91902,62718,-70,-240,971
05.10.2024 20:27:28:292,1280,0,1,2,57167,91901,62718,-63,-244,971
05.10.2024 20:27:28:296,1281,0,1,2,57166,91902,62723,-70,-244,965
05.10.2024 20:27:28:300,1282,0,1,2,57170,91901,62720,-69,-240,960
05.10.2024 20:27:28:303,1283,0,1,2,57177,91905,62724,-69,-236,965
05.10.2024 20:27:28:307,1284,0,1,2,57175,91906,62723,-67,-232,963
05.10.2024 20:27:28:311,1285,0,1,2,57185,91909,62724,-67,-232,963
05.10.2024 20:27:28:315,1286,0,1,2,57188,91911,62723,-69,-239,966
05.10.2024 20:27:28:319,1287,0,1,2,57185,91906,62725,-65,-236,969
05.10.2024 20:27:28:323,1288,0,1,2,57188,91913,62726,-68,-235,975
05.10.2024 20:27:28:327,1289,0,1,2,57194,91910,62721,-66,-231,971
05.10.2024 20:27:28:331,1290,0,1,2,57192,91913,62725,-65,-235,972
05.10.2024 20:27:28:335,1291,0,1,2,57200,91913,62725,-65,-232,970
05.10.2024 20:27:28:339,1292,0,1,2,57198,91911,62724,-64,-232,965
05.10.2024 20:27:28:343,1293,0,1,2,57200,91910,62729,-68,-229,968
05.10.2024 20:27:28:346,1294,0,1,2,57203,91910,62724,-63,-234,967
05.10.2024 20:27:28:350,1295,0,1,2,57206,91908,62721,-62,-233,967
05.10.2024 20:27:28:354,1296,0,1,2,57210,91908,62720,-62,-231,966
05.10.2024 20:27:28:358,1297,0,1,2,57207,91905,62718,-66,-234,963
05.10.2024 20:27:28:362,1298,0,1,2,57204,91904,62717,-62,-236,970
05.10.2024 20:27:28:366,1299,0,1,2,57214,91907,62715,-66,-235,964
05.10.2024 20:27:28:370,1300,0,1,2,57210,91903,62714,-57,-237,961
05.10.2024 20:27:28:374,1301,0,1,2,57208,91897,62714,-60,-239,970
05.10.2024 20:27:28:378,1302,0,1,2,57210,91901,62714,-68,-233,959
05.10.2024 20:27:28:382,1303,0,1,2,57215,91889,62713,-68,-238,965
05.10.2024 20:27:28:385,1304,0,1,2,57213,91897,62710,-62,-243,970
05.10.2024 20:27:28:389,1305,0,1,2,57211,91901,62710,-66,-243,966
05.10.2024 20:27:28:393,1306,0,1,2,57208,91894,62706,-70,-238,969
05.10.2024 20:27:28:397,1307,0,1,2,57211,91896,62709,-68,-237,971
05.10.2024 20:27:28:401,1308,0,1,2,57217,91893,62708,-63,-235,970
05.10.2024 20:27:28:405,1309,0,1,2,57211,91890,62705,-70,-243,972
05.10.2024 20:27:28:409,1310,0,1,2,57213,91886,62708,-70,-243,972
05.10.2024 20:27:28:413,1311,0,1,2,57210,91890,62703,-68,-241,966
05.10.2024 20:27:28:417,1312,0,1,2,57205,91885,62705,-71,-237,975
05.10.2024 20:27:28:421,1313,0,1,2,57210,91885,62702,-63,-239,963
05.10.2024 20:27:28:424,1314,0,1,2,57212,91890,62704,-66,-234,963
05.10.2024 20:27:28:428,1315,0,1,2,57211,91886,62704,-60,-238,965
05.10.2024 20:27:28:432,1316,0,1,2,57216,91890,62704,-65,-237,966
05.10.2024 20:27:28:436,1317,0,1,2,57206,91887,62704,-68,-239,966
05.10.2024 20:27:28:440,1318,0,1,2,57210,91886,62705,-66,-237,972
05.10.2024 20:27:28:444,1319,0,1,2,57210,91886,62711,-63,-236,966
05.10.2024 20:27:28:448,1320,0,1,2,57210,91895,62707,-66,-238,967
05.10.2024 20:27:28:452,1321,0,1,2,57211,91892,62706,-61,-235,967
05.10.2024 20:27:28:456,1322,0,1,2,57212,91891,62710,-66,-234,964
05.10.2024 20:27:28:460,1323,0,1,2,57215,91892,62709,-63,-236,970
05.10.2024 20:27:28:463,1324,0,1,2,57211,91890,62708,-66,-235,964
05.10.2024 20:27:28:467,1325,0,1,2,57216,91893,62705,-64,-242,968
05.10.2024 20:27:28:471,1326,0,1,2,57216,91892,62710,-64,-237,963
05.10.2024 20:27:28:475,1327,0,1,2,57217,91890,62708,-62,-239,970
05.10.2024 20:27:28:479,1328,0,1,2,57220,91895,62710,-63,-243,964
05.10.2024 20:27:28:483,1329,0,1,2,57221,91891,62710,-73,-237,969
05.10.2024 20:27:28:487,1330,0,1,2,57219,91888,62717,-71,-233,969
05.10.2024 20:27:28:491,1331,0,1,2,57222,91896,62713,-67,-236,969
05.10.2024 20:27:28:495,1332,0,1,2,57227,91892,62717,-68,-235,969
05.10.2024 20:27:28:499,1333,0,1,2,57229,91897,62716,-70,-233,971
05.10.2024 20:27:28:503,1334,0,1,2,57228,91899,62714,-64,-233,969
05.10.2024 20:27:28:506,1335,0,1,2,57231,91895,62713,-67,-236,967
05.10.2024 20:27:28:510,1336,0,1,2,57236,91899,62713,-69,-234,973
05.10.2024 20:27:28:514,1337,0,1,2,57237,91897,62716,-68,-237,966
05.10.2024 20:27:28:518,1338,0,1,2,57241,91898,62717,-74,-235,969
05.10.2024 20:27:28:522,1339,0,1,2,57239,91897,62715,-65,-236,969
05.10.2024 20:27:28:526,1340,0,1,2,57248,91901,62712,-65,-236,972
05.10.2024 20:27:28:530,1341,0,1,2,57251,91900,62714,-73,-239,968
05.10.2024 20:27:28:534,1342,0,1,2,57256,91893,62715,-74,-237,967
05.10.2024 20:27:28:538,1343,0,1,2,57258,91902,62713,-69,-238,965
05.10.2024 20:27:28:542,1344,0,1,2,57263,91903,62718,-69,-236,966
05.10.2024 20:27:28:545,1345,0,1,2,57265,91894,62717,-70,-233,966
05.10.2024 20:27:28:549,1346,0,1,2,57270,91895,62717,-66,-237,969
05.10.2024 20:27:28:553,1347,0,1,2,57282,91895,62715,-66,-239,970
05.10.2024 20:27:28:557,1348,0,1,2,57275,91896,62716,-65,-232,971
05.10.2024 20:27:28:561,1349,0,1,2,57284,91898,62715,-67,-240,969
05.10.2024 20:27:28:565,1350,0,1,2,57279,91903,62720,-66,-234,972
05.10.2024 20:27:28:569,1351,0,1,2,57281,91905,62719,-69,-233,965
05.10.2024 20:27:28:573,1352,0,1,2,57285,91908,62724,-64,-238,970
05.10.2024 20:27:28:577,1353,0,1,2,57291,91906,62719,-73,-239,967
05.10.2024 20:27:28:581,1354,0,1,2,57297,91906,62726,-65,-232,966
05.10.2024 20:27:28:584,1355,0,1,2,57292,91914,62723,-68,-238,967
05.10.2024 20:27:28:588,1356,0,1,2,57299,91913,62725,-71,-236,975
05.10.2024 20:27:28:592,1357,0,1,2,57296,91915,62725,-64,-240,971
05.10.2024 20:27:28:596,1358,0,1,2,57303,91919,62727,-63,-238,965
05.10.2024 20:27:28:600,1359,0,1,2,57303,91918,62731,-62,-241,970
05.10.2024 20:27:28:604,1360,0,1,2,57312,91921,62735,-67,-234,971
05.10.2024 20:27:28:608,1361,0,1,2,57315,91927,62736,-66,-234,967
05.10.2024 20:27:28:612,1362,0,1,2,57317,91923,62737,-68,-235,970
05.10.2024 20:27:28:616,1363,0,1,2,57323,91932,62740,-63,-237,968
05.10.2024 20:27:28:620,1364,0,1,2,57326,91931,62738,-68,-234,975
05.10.2024 20:27:28:624,1365,0,1,2,57335,91930,62743,-66,-233,969
05.10.2024 20:27:28:627,1366,0,1,2,57336,91936,62742,-65,-230,968
05.10.2024 20:27:28:631,1367,0,1,2,57339,91933,62745,-60,-237,965
05.10.2024 20:27:28:635,1368,0,1,2,57344,91937,62748,-63,-236,969
05.10.2024 20:27:28:639,1369,0,1,2,57346,91937,62752,-63,-236,968
05.10.2024 20:27:28:643,1370,0,1,2,57350,91938,62748,-67,-230,971
05.10.2024 20:27:28:647,1371,0,1,2,57359,91939,62754,-64,-239,965
05.10.2024 20:27:28:651,1372,0,1,2,57356,91943,62754,-65,-235,968
05.10.2024 20:27:28:655,1373,0,1,2,57358,91949,62756,-69,-233,968
05.10.2024 20:27:28:659,1374,0,1,2,57366,91950,62755,-69,-235,972
05.10.2024 20:27:28:663,1375,0,1,2,57369,91950,62760,-67,-234,972
05.10.2024 20:27:28:666,1376,0,1,2,57369,91952,62759,-63,-230,970
05.10.2024 20:27:28:670,1377,0,1,2,57376,91950,62765,-62,-238,971
05.10.2024 20:27:28:674,1378,0,1,2,57378,91950,62763,-70,-230,972
05.10.2024 20:27:28:678,1379,0,1,2,57383,91956,62763,-65,-232,969
05.10.2024 20:27:28:682,1380,0,1,2,57383,91957,62767,-64,-233,965
05.10.2024 20:27:28:686,1381,0,1,2,57393,91954,62764,-63,-234,974
05.10.2024 20:27:28:690,1382,0,1,2,57392,91956,62767,-72,-235,969
05.10.2024 20:27:28:694,1383,0,1,2,57397,91961,62767,-66,-237,965
05.10.2024 20:27:28:698,1384,0,1,2,57401,91962,62771,-66,-239,970
05.10.2024 20:27:28:702,1385,0,1,2,57403,91964,62771,-66,-239,970
05.10.2024 20:27:28:705,1386,0,1,2,57405,91964,62770,-67,-238,963
05.10.2024 20:27:28:709,1387,0,1,2,57409,91965,62772,-67,-238,976
05.10.2024 20:27:28:713,1388,0,1,2,57417,91962,62770,-70,-239,961
05.10.2024 20:27:28:717,1389,0,1,2,57413,91965,62776,-68,-237,968
05.10.2024 20:27:28:721,1390,0,1,2,57415,91967,62777,-65,-238,964
05.10.2024 20:27:28:725,1391,0,1,2,57415,91970,62777,-70,-237,965
05.10.2024 20:27:28:729,1392,0,1,2,57425,91970,62779,-69,-239,967
05.10.2024 20:27:28:733,1393,0,1,2,57427,91971,62779,-71,-227,969
05.10.2024 20:27:28:737,1394,0,1,2,57420,91971,62782,-69,-228,969
05.10.2024 20:27:28:741,1395,0,1,2,57423,91974,62788,-67,-231,973
05.10.2024 20:27:28:744,1396,0,1,2,57434,91980,62782,-68,-230,972
05.10.2024 20:27:28:748,1397,0,1,2,57430,91978,62783,-70,-228,965
05.10.2024 20:27:28:752,1398,0,1,2,57431,91976,62784,-66,-230,969
05.10.2024 20:27:28:756,1399,0,1,2,57436,91978,62785,-71,-225,967
05.10.2024 20:27:28:760,1400,0,1,2,57434,91981,62779,-70,-225,971
05.10.2024 20:27:28:764,1401,0,1,2,57436,91975,62778,-68,-227,973
05.10.2024 20:27:28:768,1402,0,1,2,57438,91972,62773,-66,-235,972
05.10.2024 20:27:28:772,1403,0,1,2,57441,91966,62770,-63,-234,970
05.10.2024 20:27:28:776,1404,0,1,2,57447,91963,62769,-63,-237,969
05.10.2024 20:27:28:780,1405,0,1,2,57446,91959,62762,-65,-237,971
05.10.2024 20:27:28:784,1406,0,1,2,57454,91959,62766,-69,-238,970
05.10.2024 20:27:28:787,1407,0,1,2,57455,91954,62761,-68,-243,971
05.10.2024 20:27:28:791,1408,0,1,2,57450,91952,62759,-68,-242,964
05.10.2024 20:27:28:795,1409,0,1,2,57454,91951,62762,-65,-241,966
05.10.2024 20:27:28:799,1410,0,1,2,57460,91947,62755,-64,-244,969
05.10.2024 20:27:28:803,1411,0,1,2,57456,91947,62753,-67,-244,974
05.10.2024 20:27:28:807,1412,0,1,2,57455,91949,62755,-67,-243,967
05.10.2024 20:27:28:811,1413,0,1,2,57450,91955,62754,-60,-243,968
05.10.2024 20:27:28:815,1414,0,1,2,57451,91950,62755,-67,-246,970
05.10.2024 20:27:28:819,1415,0,1,2,57444,91947,62759,-61,-236,966
05.10.2024 20:27:28:823,1416,0,1,2,57436,91948,62764,-64,-242,966
05.10.2024 20:27:28:826,1417,0,1,2,57427,91954,62761,-64,-240,961
05.10.2024 20:27:28:830,1418,0,1,2,57425,91951,62766,-65,-240,970
05.10.2024 20:27:28:834,1419,0,1,2,57418,91956,62766,-71,-236,967
05.10.2024 20:27:28:838,1420,0,1,2,57402,91958,62775,-74,-234,966
05.10.2024 20:27:28:842,1421,0,1,2,57402,91958,62771,-67,-234,964
05.10.2024 20:27:28:846,1422,0,1,2,57392,91959,62775,-67,-232,966
05.10.2024 20:27:28:850,1423,0,1,2,57389,91961,62776,-61,-234,966
05.10.2024 20:27:28:854,1424,0,1,2,57380,91958,62779,-63,-234,971
05.10.2024 20:27:28:858,1425,0,1,2,57376,91964,62779,-66,-234,970
05.10.2024 20:27:28:862,1426,0,1,2,57366,91966,62774,-60,-234,973
05.10.2024 20:27:28:865,1427,0,1,2,57361,91963,62783,-66,-235,966
05.10.2024 20:27:28:869,1428,0,1,2,57360,91962,62785,-64,-232,964
05.10.2024 20:27:28:873,1429,0,1,2,57345,91963,62787,-64,-230,968
05.10.2024 20:27:28:877,1430,0,1,2,57347,91964,62788,-64,-232,966
05.10.2024 20:27:28:881,1431,0,1,2,57340,91966,62788,-65,-233,970
05.10.2024 20:27:28:885,1432,0,1,2,57335,91963,62790,-62,-234,964
05.10.2024 20:27:28:889,1433,0,1,2,57336,91967,62790,-64,-236,971
05.10.2024 20:27:28:893,1434,0,1,2,57331,91965,62789,-64,-235,965
05.10.2024 20:27:28:897,1435,0,1,2,57325,91966,62790,-63,-234,969
05.10.2024 20:27:28:901,1436,0,1,2,57321,91967,62789,-62,-234,963
05.10.2024 20:27:28:904,1437,0,1,2,57318,91968,62794,-67,-230,967
05.10.2024 20:27:28:908,1438,0,1,2,57318,91968,62793,-64,-229,965
05.10.2024 20:27:28:912,1439,0,1,2,57323,91972,62795,-68,-231,970
05.10.2024 20:27:28:916,1440,0,1,2,57315,91972,62798,-66,-233,968
05.10.2024 20:27:28:920,1441,0,1,2,57316,91970,62799,-71,-233,970
05.10.2024 20:27:28:924,1442,0,1,2,57324,91978,62805,-65,-231,970
05.10.2024 20:27:28:928,1443,0,1,2,57315,91975,62800,-69,-233,970
05.10.2024 20:27:28:932,1444,0,1,2,57319,91985,62806,-69,-228,967
05.10.2024 20:27:28:936,1445,0,1,2,57319,91980,62805,-67,-234,972
05.10.2024 20:27:28:940,1446,0,1,2,57319,91982,62807,-70,-233,973
05.10.2024 20:27:28:944,1447,0,1,2,57325,91976,62807,-64,-235,965
05.10.2024 20:27:28:947,1448,0,1,2,57329,91976,62802,-65,-235,969
05.10.2024 20:27:28:951,1449,0,1,2,57321,91984,62811,-69,-234,968
05.10.2024 20:27:28:955,1450,0,1,2,57324,91983,62813,-72,-229,960
05.10.2024 20:27:28:959,1451,0,1,2,57331,91983,62814,-70,-232,968
05.10.2024 20:27:28:963,1452,0,1,2,57330,91988,62812,-69,-235,967
05.10.2024 20:27:28:967,1453,0,1,2,57334,91985,62817,-70,-234,964
05.10.2024 20:27:28:971,1454,0,1,2,57336,91986,62819,-69,-232,968
05.10.2024 20:27:28:975,1455,0,1,2,57340,91986,62816,-72,-235,963
05.10.2024 20:27:28:979,1456,0,1,2,57339,91996,62821,-64,-236,974
05.10.2024 20:27:28:983,1457,0,1,2,57343,91992,62822,-65,-232,968
05.10.2024 20:27:28:986,1458,0,1,2,57343,91995,62821,-67,-234,968
05.10.2024 20:27:28:990,1459,0,1,2,57346,92000,62824,-71,-232,963
05.10.2024 20:27:28:994,1460,0,1,2,57348,91997,62826,-63,-233,967
05.10.2024 20:27:28:998,1461,0,1,2,57349,92004,62828,-68,-228,965
05.10.2024 20:27:29:2,1462,0,1,2,57353,92007,62830,-66,-233,969
05.10.2024 20:27:29:6,1463,0,1,2,57352,92008,62834,-67,-231,968
05.10.2024 20:27:29:10,1464,0,1,2,57357,92011,62837,-72,-229,969
05.10.2024 20:27:29:14,1465,0,1,2,57360,92014,62837,-66,-227,967
05.10.2024 20:27:29:18,1466,0,1,2,57363,92014,62839,-68,-230,967
05.10.2024 20:27:29:22,1467,0,1,2,57357,92017,62838,-66,-232,966
05.10.2024 20:27:29:25,1468,0,1,2,57359,92023,62841,-71,-235,969
05.10.2024 20:27:29:29,1469,0,1,2,57370,92018,62842,-66,-233,971
05.10.2024 20:27:29:33,1470,0,1,2,57363,92024,62844,-70,-227,967
05.10.2024 20:27:29:37,1471,0,1,2,57368,92024,62843,-65,-232,968
05.10.2024 20:27:29:41,1472,0,1,2,57366,92019,62841,-70,-233,973
05.10.2024 20:27:29:45,1473,0,1,2,57374,92020,62846,-69,-229,970
05.10.2024 20:27:29:49,1474,0,1,2,57376,92024,62848,-68,-230,971
05.10.2024 20:27:29:53,1475,0,1,2,57373,92027,62845,-69,-229,969
05.10.2024 20:27:29:57,1476,0,1,2,57373,92023,62845,-73,-233,964
05.10.2024 20:27:29:61,1477,0,1,2,57372,92020,62847,-64,-233,969
05.10.2024 20:27:29:64,1478,0,1,2,57376,92023,62846,-71,-231,961
05.10.2024 20:27:29:68,1479,0,1,2,57375,92026,62847,-72,-224,970
05.10.2024 20:27:29:72,1480,0,1,2,57372,92024,62845,-72,-230,975
05.10.2024 20:27:29:76,1481,0,1,2,57376,92028,62845,-70,-235,973
05.10.2024 20:27:29:80,1482,0,1,2,57371,92021,62847,-70,-226,968
05.10.2024 20:27:29:84,1483,0,1,2,57372,92024,62844,-66,-227,968
05.10.2024 20:27:29:88,1484,0,1,2,57372,92022,62840,-69,-225,968
05.10.2024 20:27:29:92,1485,0,1,2,57376,92020,62843,-73,-230,971
05.10.2024 20:27:29:96,1486,0,1,2,57371,92018,62840,-73,-233,969
05.10.2024 20:27:29:100,1487,0,1,2,57371,92011,62840,-71,-227,959
05.10.2024 20:27:29:104,1488,0,1,2,57366,92008,62837,-71,-229,972
05.10.2024 20:27:29:107,1489,0,1,2,57365,92012,62834,-73,-234,971
05.10.2024 20:27:29:111,1490,0,1,2,57367,92010,62833,-69,-232,973
05.10.2024 20:27:29:115,1491,0,1,2,57368,92007,62838,-71,-233,971
05.10.2024 20:27:29:119,1492,0,1,2,57364,92013,62834,-70,-231,974
05.10.2024 20:27:29:123,1493,0,1,2,57361,92008,62830,-70,-225,968
05.10.2024 20:27:29:127,1494,0,1,2,57365,92004,62831,-70,-231,963
05.10.2024 20:27:29:131,1495,0,1,2,57362,92003,62829,-68,-233,967
05.10.2024 20:27:29:135,1496,0,1,2,57357,92003,62828,-67,-231,967
05.10.2024 20:27:29:139,1497,0,1,2,57362,92004,62831,-68,-230,969
05.10.2024 20:27:29:143,1498,0,1,2,57355,92002,62833,-64,-229,970
05.10.2024 20:27:29:146,1499,0,1,2,57357,92004,62831,-67,-230,970
05.10.2024 20:27:29:150,1500,0,1,2,57359,92002,62832,-68,-234,968
05.10.2024 20:27:29:154,1501,0,1,2,57349,92001,62831,-66,-228,965
05.10.2024 20:27:29:158,1502,0,1,2,57362,92002,62828,-71,-230,968
05.10.2024 20:27:29:162,1503,0,1,2,57365,92005,62834,-64,-227,968
05.10.2024 20:27:29:166,1504,0,1,2,57363,92004,62829,-63,-234,968
05.10.2024 20:27:29:170,1505,0,1,2,57357,92008,62831,-65,-229,969
05.10.2024 20:27:29:174,1506,0,1,2,57361,92002,62828,-68,-226,966
05.10.2024 20:27:29:178,1507,0,1,2,57362,91999,62825,-65,-234,970
05.10.2024 20:27:29:182,1508,0,1,2,57365,91999,62831,-64,-237,972
05.10.2024 20:27:29:185,1509,0,1,2,57372,91999,62831,-67,-234,965
05.10.2024 20:27:29:189,1510,0,1,2,57373,91999,62829,-63,-230,971
05.10.2024 20:27:29:193,1511,0,1,2,57375,91999,62830,-67,-228,971
05.10.2024 20:27:29:197,1512,0,1,2,57372,92001,62830,-61,-233,969
05.10.2024 20:27:29:201,1513,0,1,2,57373,92001,62829,-66,-231,967
05.10.2024 20:27:29:205,1514,0,1,2,57375,91998,62831,-69,-231,969
05.10.2024 20:27:29:209,1515,0,1,2,57376,92001,62829,-67,-231,974
05.10.2024 20:27:29:213,1516,0,1,2,57380,92001,62833,-64,-228,972
05.10.2024 20:27:29:217,1517,0,1,2,57387,92002,62835,-72,-233,967
05.10.2024 20:27:29:221,1518,0,1,2,57387,91997,62833,-69,-233,970
05.10.2024 20:27:29:224,1519,0,1,2,57397,92002,62830,-69,-230,972
05.10.2024 20:27:29:228,1520,0,1,2,57400,92007,62836,-65,-228,964
05.10.2024 20:27:29:232,1521,0,1,2,57399,92008,62836,-67,-229,966
05.10.2024 20:27:29:236,1522,0,1,2,57402,92004,62837,-70,-225,968
05.10.2024 20:27:29:240,1523,0,1,2,57403,92001,62838,-68,-226,969
05.10.2024 20:27:29:244,1524,0,1,2,57408,92010,62839,-69,-234,961
05.10.2024 20:27:29:248,1525,0,1,2,57410,92005,62837,-71,-230,971
05.10.2024 20:27:29:252,1526,0,1,2,57413,92000,62836,-70,-228,974
05.10.2024 20:27:29:256,1527,0,1,2,57416,92009,62838,-71,-236,972
05.10.2024 20:27:29:260,1528,0,1,2,57423,92002,62834,-70,-235,974
05.10.2024 20:27:29:264,1529,0,1,2,57423,92006,62835,-69,-232,972
05.10.2024 20:27:29:267,1530,0,1,2,57422,92008,62838,-69,-231,974
05.10.2024 20:27:29:271,1531,0,1,2,57426,92004,62836,-69,-231,970
05.10.2024 20:27:29:275,1532,0,1,2,57433,92007,62844,-69,-232,971
05.10.2024 20:27:29:279,1533,0,1,2,57435,92008,62839,-70,-237,966
05.10.2024 20:27:29:283,1534,0,1,2,57436,92003,62842,-70,-236,964
05.10.2024 20:27:29:287,1535,0,1,2,57444,92015,62846,-69,-231,973
05.10.2024 20:27:29:291,1536,0,1,2,57445,92021,62848,-69,-230,964
05.10.2024 20:27:29:295,1537,0,1,2,57442,92025,62849,-63,-230,963
05.10.2024 20:27:29:299,1538,0,1,2,57450,92030,62854,-70,-221,966
05.10.2024 20:27:29:303,1539,0,1,2,57452,92034,62856,-67,-224,967
05.10.2024 20:27:29:306,1540,0,1,2,57452,92036,62859,-64,-223,971
05.10.2024 20:27:29:310,1541,0,1,2,57454,92038,62861,-60,-225,981
05.10.2024 20:27:29:314,1542,0,1,2,57456,92031,62862,-62,-223,972
05.10.2024 20:27:29:318,1543,0,1,2,57463,92040,62866,-66,-222,972
05.10.2024 20:27:29:322,1544,0,1,2,57461,92038,62865,-67,-226,967
05.10.2024 20:27:29:326,1545,0,1,2,57466,92042,62867,-65,-221,975
05.10.2024 20:27:29:330,1546,0,1,2,57473,92038,62864,-68,-224,968
05.10.2024 20:27:29:334,1547,0,1,2,57476,92043,62864,-65,-228,976
05.10.2024 20:27:29:338,1548,0,1,2,57479,92042,62864,-68,-224,973
05.10.2024 20:27:29:342,1549,0,1,2,57474,92036,62862,-69,-224,968
05.10.2024 20:27:29:345,1550,0,1,2,57479,92033,62856,-69,-224,969
05.10.2024 20:27:29:349,1551,0,1,2,57491,92032,62859,-65,-230,968
05.10.2024 20:27:29:353,1552,0,1,2,57485,92026,62854,-67,-236,971
05.10.2024 20:27:29:357,1553,0,1,2,57493,92022,62851,-66,-235,967
05.10.2024 20:27:29:361,1554,0,1,2,57495,92012,62846,-63,-240,971
05.10.2024 20:27:29:365,1555,0,1,2,57496,92016,62846,-72,-230,966
05.10.2024 20:27:29:369,1556,0,1,2,57503,92018,62843,-65,-235,968
05.10.2024 20:27:29:373,1557,0,1,2,57506,92016,62845,-67,-238,965
05.10.2024 20:27:29:377,1558,0,1,2,57502,92015,62841,-67,-238,975
05.10.2024 20:27:29:381,1559,0,1,2,57506,92011,62844,-68,-233,966
05.10.2024 20:27:29:385,1560,0,1,2,57514,92013,62841,-66,-236,972
05.10.2024 20:27:29:388,1561,0,1,2,57512,92019,62846,-66,-233,974
05.10.2024 20:27:29:392,1562,0,1,2,57516,92023,62852,-63,-223,971
05.10.2024 20:27:29:396,1563,0,1,2,57514,92022,62849,-66,-227,970
05.10.2024 20:27:29:400,1564,0,1,2,57519,92027,62852,-67,-225,966
05.10.2024 20:27:29:404,1565,0,1,2,57521,92025,62856,-72,-223,975
05.10.2024 20:27:29:408,1566,0,1,2,57523,92026,62853,-68,-230,966
05.10.2024 20:27:29:412,1567,0,1,2,57530,92028,62852,-71,-228,967
05.10.2024 20:27:29:416,1568,0,1,2,57529,92024,62855,-75,-223,971
05.10.2024 20:27:29:420,1569,0,1,2,57536,92026,62852,-70,-222,970
05.10.2024 20:27:29:424,1570,0,1,2,57538,92029,62853,-67,-227,974
05.10.2024 20:27:29:427,1571,0,1,2,57541,92024,62858,-65,-231,969
05.10.2024 20:27:29:431,1572,0,1,2,57537,92023,62855,-66,-232,972
05.10.2024 20:27:29:435,1573,0,1,2,57541,92024,62850,-70,-231,973
05.10.2024 20:27:29:439,1574,0,1,2,57554,92024,62851,-70,-232,975
05.10.2024 20:27:29:443,1575,0,1,2,57560,92026,62852,-68,-232,965
05.10.2024 20:27:29:447,1576,0,1,2,57567,92022,62853,-68,-228,971
05.10.2024 20:27:29:451,1577,0,1,2,57563,92025,62853,-67,-230,972
05.10.2024 20:27:29:455,1578,0,1,2,57562,92021,62854,-57,-233,968
05.10.2024 20:27:29:459,1579,0,1,2,57571,92025,62856,-64,-230,967
05.10.2024 20:27:29:463,1580,0,1,2,57578,92025,62856,-65,-232,968
05.10.2024 20:27:29:466,1581,0,1,2,57583,92029,62856,-64,-225,971
05.10.2024 20:27:29:470,1582,0,1,2,57584,92032,62858,-63,-224,970
05.10.2024 20:27:29:474,1583,0,1,2,57587,92031,62861,-64,-223,965
05.10.2024 20:27:29:478,1584,0,1,2,57595,92027,62860,-64,-223,969
05.10.2024 20:27:29:482,1585,0,1,2,57600,92026,62863,-67,-225,971
05.10.2024 20:27:29:486,1586,0,1,2,57605,92027,62859,-65,-225,965
05.10.2024 20:27:29:490,1587,0,1,2,57604,92025,62857,-60,-223,970
05.10.2024 20:27:29:494,1588,0,1,2,57614,92026,62857,-66,-225,975
05.10.2024 20:27:29:498,1589,0,1,2,57618,92022,62856,-70,-226,972
05.10.2024 20:27:29:502,1590,0,1,2,57625,92018,62853,-66,-227,966
05.10.2024 20:27:29:505,1591,0,1,2,57628,92020,62852,-68,-225,972
05.10.2024 20:27:29:509,1592,0,1,2,57625,92015,62845,-67,-227,969
05.10.2024 20:27:29:513,1593,0,1,2,57633,92017,62848,-65,-220,967
05.10.2024 20:27:29:517,1594,0,1,2,57634,92011,62838,-68,-230,970
05.10.2024 20:27:29:521,1595,0,1,2,57639,92005,62840,-69,-233,966
05.10.2024 20:27:29:525,1596,0,1,2,57632,92003,62840,-72,-231,969
05.10.2024 20:27:29:529,1597,0,1,2,57628,91995,62836,-68,-233,974
05.10.2024 20:27:29:533,1598,0,1,2,57635,91995,62838,-71,-234,966
05.10.2024 20:27:29:537,1599,0,1,2,57634,91996,62832,-73,-233,965
05.10.2024 20:27:29:541,1600,0,1,2,57631,91990,62831,-67,-238,970
05.10.2024 20:27:29:545,1601,0,1,2,57626,91986,62828,-70,-235,967
05.10.2024 20:27:29:548,1602,0,1,2,57620,91980,62829,-71,-235,973
05.10.2024 20:27:29:552,1603,0,1,2,57622,91985,62831,-68,-231,968
05.10.2024 20:27:29:556,1604,0,1,2,57613,91978,62827,-72,-235,971
05.10.2024 20:27:29:560,1605,0,1,2,57602,91983,62832,-66,-230,966
05.10.2024 20:27:29:564,1606,0,1,2,57596,91979,62831,-68,-230,968
05.10.2024 20:27:29:568,1607,0,1,2,57591,91981,62831,-67,-233,971
05.10.2024 20:27:29:572,1608,0,1,2,57582,91979,62836,-68,-230,961
05.10.2024 20:27:29:576,1609,0,1,2,57561,91976,62836,-69,-223,969
05.10.2024 20:27:29:580,1610,0,1,2,57565,91983,62835,-66,-228,968
05.10.2024 20:27:29:584,1611,0,1,2,57557,91981,62837,-67,-231,967
05.10.2024 20:27:29:587,1612,0,1,2,57549,91979,62837,-69,-223,972
05.10.2024 20:27:29:591,1613,0,1,2,57548,91982,62841,-69,-231,972
05.10.2024 20:27:29:595,1614,0,1,2,57539,91981,62841,-71,-220,972
05.10.2024 20:27:29:599,1615,0,1,2,57521,91978,62843,-74,-223,967
05.10.2024 20:27:29:603,1616,0,1,2,57520,91980,62838,-70,-222,970
05.10.2024 20:27:29:607,1617,0,1,2,57513,91976,62837,-73,-226,969
05.10.2024 20:27:29:611,1618,0,1,2,57507,91967,62841,-63,-231,972
05.10.2024 20:27:29:615,1619,0,1,2,57504,91971,62838,-67,-236,969
05.10.2024 20:27:29:619,1620,0,1,2,57498,91974,62838,-65,-229,968
05.10.2024 20:27:29:623,1621,0,1,2,57490,91968,62834,-68,-229,974
05.10.2024 20:27:29:626,1622,0,1,2,57484,91970,62835,-67,-228,969
05.10.2024 20:27:29:630,1623,0,1,2,57484,91971,62837,-69,-235,977
05.10.2024 20:27:29:634,1624,0,1,2,57487,91964,62839,-70,-233,970
05.10.2024 20:27:29:638,1625,0,1,2,57478,91969,62838,-68,-228,970
05.10.2024 20:27:29:642,1626,0,1,2,57481,91971,62842,-68,-230,967
05.10.2024 20:27:29:646,1627,0,1,2,57473,91967,62841,-67,-228,966
05.10.2024 20:27:29:650,1628,0,1,2,57472,91969,62839,-70,-222,965
05.10.2024 20:27:29:654,1629,0,1,2,57473,91978,62842,-68,-225,972
05.10.2024 20:27:29:658,1630,0,1,2,57476,91970,62842,-68,-225,973
05.10.2024 20:27:29:662,1631,0,1,2,57471,91974,62846,-71,-221,972
05.10.2024 20:27:29:665,1632,0,1,2,57472,91971,62840,-65,-219,970
05.10.2024 20:27:29:669,1633,0,1,2,57477,91962,62838,-70,-222,970
05.10.2024 20:27:29:673,1634,0,1,2,57472,91965,62839,-66,-229,974
05.10.2024 20:27:29:677,1635,0,1,2,57479,91960,62835,-67,-230,969
05.10.2024 20:27:29:681,1636,0,1,2,57481,91959,62832,-67,-225,971
05.10.2024 20:27:29:685,1637,0,1,2,57482,91959,62832,-69,-232,971
05.10.2024 20:27:29:689,1638,0,1,2,57479,91957,62836,-69,-230,964
05.10.2024 20:27:29:693,1639,0,1,2,57483,91954,62833,-67,-229,971
05.10.2024 20:27:29:697,1640,0,1,2,57479,91952,62833,-76,-224,976
05.10.2024 20:27:29:701,1641,0,1,2,57485,91957,62835,-69,-230,966
05.10.2024 20:27:29:705,1642,0,1,2,57485,91957,62836,-67,-236,970
05.10.2024 20:27:29:708,1643,0,1,2,57495,91959,62833,-71,-235,970
05.10.2024 20:27:29:712,1644,0,1,2,57491,91953,62838,-75,-231,969
05.10.2024 20:27:29:716,1645,0,1,2,57497,91962,62845,-66,-234,972
05.10.2024 20:27:29:720,1646,0,1,2,57494,91959,62841,-65,-226,971
05.10.2024 20:27:29:724,1647,0,1,2,57494,91960,62841,-73,-228,976
05.10.2024 20:27:29:728,1648,0,1,2,57501,91967,62844,-65,-229,973
05.10.2024 20:27:29:732,1649,0,1,2,57497,91963,62844,-70,-227,967
05.10.2024 20:27:29:736,1650,0,1,2,57506,91964,62850,-69,-226,969
05.10.2024 20:27:29:740,1651,0,1,2,57510,91969,62847,-66,-225,970
05.10.2024 20:27:29:744,1652,0,1,2,57512,91967,62847,-65,-225,965
05.10.2024 20:27:29:747,1653,0,1,2,57514,91966,62851,-67,-228,968
05.10.2024 20:27:29:751,1654,0,1,2,57515,91972,62852,-62,-224,970
05.10.2024 20:27:29:755,1655,0,1,2,57519,91973,62848,-68,-220,969
05.10.2024 20:27:29:759,1656,0,1,2,57522,91966,62852,-68,-223,967
05.10.2024 20:27:29:763,1657,0,1,2,57525,91973,62848,-65,-218,971
05.10.2024 20:27:29:767,1658,0,1,2,57527,91972,62854,-70,-225,970
05.10.2024 20:27:29:771,1659,0,1,2,57526,91967,62854,-71,-222,963
05.10.2024 20:27:29:775,1660,0,1,2,57537,91973,62852,-67,-221,964
05.10.2024 20:27:29:779,1661,0,1,2,57526,91966,62849,-69,-223,963
05.10.2024 20:27:29:783,1662,0,1,2,57530,91963,62848,-67,-219,968
05.10.2024 20:27:29:786,1663,0,1,2,57532,91961,62849,-72,-224,965
05.10.2024 20:27:29:790,1664,0,1,2,57534,91958,62846,-70,-226,969
05.10.2024 20:27:29:794,1665,0,1,2,57534,91953,62843,-68,-226,966
05.10.2024 20:27:29:798,1666,0,1,2,57527,91954,62844,-71,-232,968
05.10.2024 20:27:29:802,1667,0,1,2,57530,91953,62840,-69,-227,966
05.10.2024 20:27:29:806,1668,0,1,2,57521,91956,62842,-76,-228,970
05.10.2024 20:27:29:810,1669,0,1,2,57527,91953,62838,-76,-222,969
05.10.2024 20:27:29:814,1670,0,1,2,57524,91951,62834,-75,-226,974
05.10.2024 20:27:29:818,1671,0,1,2,57513,91949,62833,-73,-222,971
05.10.2024 20:27:29:822,1672,0,1,2,57519,91945,62830,-72,-229,970
05.10.2024 20:27:29:825,1673,0,1,2,57515,91946,62828,-70,-235,971
05.10.2024 20:27:29:829,1674,0,1,2,57518,91937,62830,-66,-241,965
05.10.2024 20:27:29:833,1675,0,1,2,57511,91933,62830,-68,-232,970
05.10.2024 20:27:29:837,1676,0,1,2,57515,91935,62826,-65,-229,966
05.10.2024 20:27:29:841,1677,0,1,2,57513,91933,62827,-71,-225,963
05.10.2024 20:27:29:845,1678,0,1,2,57514,91934,62823,-68,-227,968
05.10.2024 20:27:29:849,1679,0,1,2,57515,91930,62820,-70,-223,966
05.10.2024 20:27:29:853,1680,0,1,2,57511,91928,62819,-72,-228,966
05.10.2024 20:27:29:857,1681,0,1,2,57508,91927,62824,-64,-227,971
05.10.2024 20:27:29:861,1682,0,1,2,57509,91927,62825,-64,-225,967
05.10.2024 20:27:29:865,1683,0,1,2,57504,91927,62820,-73,-224,968
05.10.2024 20:27:29:868,1684,0,1,2,57500,91920,62819,-64,-219,972
05.10.2024 20:27:29:872,1685,0,1,2,57503,91926,62818,-71,-224,969
05.10.2024 20:27:29:876,1686,0,1,2,57505,91922,62817,-66,-217,967
05.10.2024 20:27:29:880,1687,0,1,2,57508,91922,62821,-67,-221,969
05.10.2024 20:27:29:884,1688,0,1,2,57501,91921,62817,-65,-219,976
05.10.2024 20:27:29:888,1689,0,1,2,57492,91917,62818,-68,-220,971
05.10.2024 20:27:29:892,1690,0,1,2,57499,91916,62815,-65,-228,968
05.10.2024 20:27:29:896,1691,0,1,2,57498,91912,62814,-67,-227,970
05.10.2024 20:27:29:900,1692,0,1,2,57491,91910,62809,-68,-230,968
05.10.2024 20:27:29:904,1693,0,1,2,57501,91909,62806,-67,-227,966
05.10.2024 20:27:29:907,1694,0,1,2,57496,91907,62804,-68,-229,973
05.10.2024 20:27:29:911,1695,0,1,2,57495,91898,62802,-76,-227,974
05.10.2024 20:27:29:915,1696,0,1,2,57498,91896,62796,-65,-231,973
05.10.2024 20:27:29:919,1697,0,1,2,57491,91895,62794,-69,-234,967
05.10.2024 20:27:29:923,1698,0,1,2,57496,91893,62796,-70,-236,971
05.10.2024 20:27:29:927,1699,0,1,2,57493,91894,62792,-73,-236,967
05.10.2024 20:27:29:931,1700,0,1,2,57500,91893,62793,-70,-234,967
05.10.2024 20:27:29:935,1701,0,1,2,57502,91894,62793,-65,-232,966
05.10.2024 20:27:29:939,1702,0,1,2,57500,91887,62796,-71,-224,971
05.10.2024 20:27:29:943,1703,0,1,2,57503,91888,62793,-70,-227,968
05.10.2024 20:27:29:946,1704,0,1,2,57506,91895,62790,-70,-224,974
05.10.2024 20:27:29:950,1705,0,1,2,57504,91890,62797,-67,-223,971
05.10.2024 20:27:29:954,1706,0,1,2,57508,91894,62796,-71,-228,971
05.10.2024 20:27:29:958,1707,0,1,2,57505,91897,62793,-69,-226,972
05.10.2024 20:27:29:962,1708,0,1,2,57506,91889,62795,-69,-224,973
05.10.2024 20:27:29:966,1709,0,1,2,57510,91890,62797,-70,-217,970
05.10.2024 20:27:29:970,1710,0,1,2,57512,91889,62792,-71,-221,967
05.10.2024 20:27:29:974,1711,0,1,2,57517,91890,62796,-68,-227,965
05.10.2024 20:27:29:978,1712,0,1,2,57510,91890,62794,-69,-223,964
05.10.2024 20:27:29:982,1713,0,1,2,57516,91887,62789,-66,-220,973
05.10.2024 20:27:29:985,1714,0,1,2,57519,91887,62789,-69,-224,968
05.10.2024 20:27:29:989,1715,0,1,2,57521,91885,62787,-67,-234,973
05.10.2024 20:27:29:993,1716,0,1,2,57525,91884,62789,-68,-232,964
05.10.2024 20:27:29:997,1717,0,1,2,57531,91881,62785,-66,-233,971
05.10.2024 20:27:30:1,1718,0,1,2,57531,91880,62790,-65,-230,965
05.10.2024 20:27:30:5,1719,0,1,2,57528,91877,62781,-64,-232,972
05.10.2024 20:27:30:9,1720,0,1,2,57527,91880,62785,-69,-234,972
05.10.2024 20:27:30:13,1721,0,1,2,57530,91882,62786,-73,-234,972
05.10.2024 20:27:30:17,1722,0,1,2,57535,91875,62784,-63,-233,962
05.10.2024 20:27:30:21,1723,0,1,2,57537,91879,62786,-67,-228,968
05.10.2024 20:27:30:25,1724,0,1,2,57536,91881,62783,-61,-228,968
05.10.2024 20:27:30:28,1725,0,1,2,57540,91878,62789,-68,-225,972
05.10.2024 20:27:30:32,1726,0,1,2,57542,91884,62792,-71,-224,970
05.10.2024 20:27:30:36,1727,0,1,2,57545,91883,62792,-74,-225,970
05.10.2024 20:27:30:40,1728,0,1,2,57547,91881,62789,-71,-218,973
05.10.2024 20:27:30:44,1729,0,1,2,57543,91887,62790,-71,-223,972
05.10.2024 20:27:30:48,1730,0,1,2,57543,91888,62792,-69,-220,974
05.10.2024 20:27:30:52,1731,0,1,2,57548,91887,62793,-69,-222,965
05.10.2024 20:27:30:56,1732,0,1,2,57549,91886,62792,-68,-224,967
05.10.2024 20:27:30:60,1733,0,1,2,57548,91885,62788,-70,-223,974
05.10.2024 20:27:30:64,1734,0,1,2,57551,91887,62792,-68,-229,973
05.10.2024 20:27:30:67,1735,0,1,2,57557,91888,62790,-70,-222,972
05.10.2024 20:27:30:71,1736,0,1,2,57563,91886,62790,-74,-225,972
05.10.2024 20:27:30:75,1737,0,1,2,57562,91879,62790,-73,-221,972
05.10.2024 20:27:30:79,1738,0,1,2,57562,91882,62785,-68,-223,968
05.10.2024 20:27:30:83,1739,0,1,2,57568,91878,62782,-73,-227,972
05.10.2024 20:27:30:87,1740,0,1,2,57568,91881,62781,-71,-231,965
05.10.2024 20:27:30:91,1741,0,1,2,57573,91875,62779,-69,-233,970
05.10.2024 20:27:30:95,1742,0,1,2,57577,91875,62778,-70,-228,970
05.10.2024 20:27:30:99,1743,0,1,2,57578,91867,62774,-66,-228,965
05.10.2024 20:27:30:103,1744,0,1,2,57576,91868,62772,-71,-233,967
05.10.2024 20:27:30:106,1745,0,1,2,57582,91863,62772,-69,-228,965
05.10.2024 20:27:30:110,1746,0,1,2,57588,91867,62771,-70,-232,969
05.10.2024 20:27:30:114,1747,0,1,2,57591,91869,62774,-68,-231,968
05.10.2024 20:27:30:118,1748,0,1,2,57589,91870,62772,-71,-226,972
05.10.2024 20:27:30:122,1749,0,1,2,57593,91868,62775,-67,-229,968
05.10.2024 20:27:30:126,1750,0,1,2,57588,91874,62774,-71,-223,972
05.10.2024 20:27:30:130,1751,0,1,2,57585,91864,62772,-73,-228,972
05.10.2024 20:27:30:134,1752,0,1,2,57587,91869,62773,-67,-228,965
05.10.2024 20:27:30:138,1753,0,1,2,57593,91868,62772,-65,-226,977
05.10.2024 20:27:30:142,1754,0,1,2,57593,91872,62773,-61,-230,972
05.10.2024 20:27:30:146,1755,0,1,2,57594,91871,62774,-59,-227,966
05.10.2024 20:27:30:149,1756,0,1,2,57598,91868,62774,-69,-227,969
05.10.2024 20:27:30:153,1757,0,1,2,57603,91870,62776,-70,-222,973
05.10.2024 20:27:30:157,1758,0,1,2,57593,91874,62775,-71,-227,969
05.10.2024 20:27:30:161,1759,0,1,2,57596,91873,62775,-71,-224,968
05.10.2024 20:27:30:165,1760,0,1,2,57602,91877,62778,-73,-225,970
05.10.2024 20:27:30:169,1761,0,1,2,57601,91877,62773,-65,-219,971
05.10.2024 20:27:30:173,1762,0,1,2,57600,91872,62776,-74,-223,966
05.10.2024 20:27:30:177,1763,0,1,2,57604,91875,62769,-70,-227,969
05.10.2024 20:27:30:181,1764,0,1,2,57604,91872,62773,-68,-232,971
05.10.2024 20:27:30:185,1765,0,1,2,57602,91865,62768,-69,-235,971
05.10.2024 20:27:30:188,1766,0,1,2,57609,91862,62764,-69,-228,974
05.10.2024 20:27:30:192,1767,0,1,2,57606,91863,62767,-69,-230,965
05.10.2024 20:27:30:196,1768,0,1,2,57609,91863,62764,-70,-229,969
05.10.2024 20:27:30:200,1769,0,1,2,57612,91862,62763,-72,-228,964
05.10.2024 20:27:30:204,1770,0,1,2,57612,91855,62760,-65,-223,972
05.10.2024 20:27:30:208,1771,0,1,2,57616,91855,62760,-67,-224,968
05.10.2024 20:27:30:212,1772,0,1,2,57614,91857,62758,-69,-223,965
05.10.2024 20:27:30:216,1773,0,1,2,57620,91852,62757,-70,-224,964
05.10.2024 20:27:30:220,1774,0,1,2,57625,91856,62755,-63,-223,970
05.10.2024 20:27:30:224,1775,0,1,2,57619,91849,62753,-67,-224,973
05.10.2024 20:27:30:227,1776,0,1,2,57621,91848,62753,-62,-224,968
05.10.2024 20:27:30:231,1777,0,1,2,57625,91842,62744,-63,-221,972
05.10.2024 20:27:30:235,1778,0,1,2,57628,91842,62746,-68,-231,973
05.10.2024 20:27:30:239,1779,0,1,2,57627,91835,62739,-64,-230,972
05.10.2024 20:27:30:243,1780,0,1,2,57625,91835,62735,-67,-223,968
05.10.2024 20:27:30:247,1781,0,1,2,57630,91834,62734,-74,-229,966
05.10.2024 20:27:30:251,1782,0,1,2,57636,91828,62730,-66,-230,967
05.10.2024 20:27:30:255,1783,0,1,2,57632,91828,62730,-71,-230,971
05.10.2024 20:27:30:259,1784,0,1,2,57640,91824,62724,-67,-227,966
05.10.2024 20:27:30:263,1785,0,1,2,57632,91824,62727,-68,-226,972
05.10.2024 20:27:30:266,1786,0,1,2,57637,91818,62724,-68,-232,966
05.10.2024 20:27:30:270,1787,0,1,2,57637,91816,62718,-66,-231,972
05.10.2024 20:27:30:274,1788,0,1,2,57633,91810,62718,-71,-238,966
05.10.2024 20:27:30:278,1789,0,1,2,57630,91805,62714,-66,-232,971
05.10.2024 20:27:30:282,1790,0,1,2,57624,91807,62715,-62,-232,968
05.10.2024 20:27:30:286,1791,0,1,2,57621,91817,62715,-66,-229,974
05.10.2024 20:27:30:290,1792,0,1,2,57613,91806,62713,-65,-231,969
05.10.2024 20:27:30:294,1793,0,1,2,57609,91805,62713,-69,-226,968
05.10.2024 20:27:30:298,1794,0,1,2,57609,91803,62705,-75,-231,971
05.10.2024 20:27:30:302,1795,0,1,2,57584,91798,62710,-67,-229,965
05.10.2024 20:27:30:306,1796,0,1,2,57581,91800,62712,-69,-228,967
05.10.2024 20:27:30:309,1797,0,1,2,57573,91799,62711,-71,-223,964
05.10.2024 20:27:30:313,1798,0,1,2,57558,91798,62709,-71,-221,973
05.10.2024 20:27:30:317,1799,0,1,2,57556,91789,62707,-71,-221,971
05.10.2024 20:27:30:321,1800,0,1,2,57538,91788,62709,-69,-228,970
05.10.2024 20:27:30:325,1801,0,1,2,57535,91786,62704,-70,-230,970
05.10.2024 20:27:30:329,1802,0,1,2,57521,91783,62704,-67,-234,970
05.10.2024 20:27:30:333,1803,0,1,2,57515,91784,62702,-72,-228,969
05.10.2024 20:27:30:337,1804,0,1,2,57503,91783,62705,-70,-234,963
05.10.2024 20:27:30:341,1805,0,1,2,57495,91776,62703,-69,-233,970
05.10.2024 20:27:30:345,1806,0,1,2,57478,91783,62701,-66,-229,968
05.10.2024 20:27:30:348,1807,0,1,2,57476,91773,62699,-71,-235,971
05.10.2024 20:27:30:352,1808,0,1,2,57467,91771,62702,-68,-232,967
05.10.2024 20:27:30:356,1809,0,1,2,57459,91772,62701,-68,-235,970
05.10.2024 20:27:30:360,1810,0,1,2,57450,91774,62702,-68,-230,965
05.10.2024 20:27:30:364,1811,0,1,2,57443,91769,62706,-66,-231,968
05.10.2024 20:27:30:368,1812,0,1,2,57440,91777,62703,-62,-225,974
05.10.2024 20:27:30:372,1813,0,1,2,57432,91775,62706,-70,-223,970
05.10.2024 20:27:30:376,1814,0,1,2,57428,91774,62707,-73,-225,966
05.10.2024 20:27:30:380,1815,0,1,2,57423,91772,62709,-63,-225,966
05.10.2024 20:27:30:384,1816,0,1,2,57419,91779,62710,-66,-226,969
05.10.2024 20:27:30:387,1817,0,1,2,57413,91779,62709,-63,-216,970
05.10.2024 20:27:30:391,1818,0,1,2,57409,91777,62711,-66,-222,972
05.10.2024 20:27:30:395,1819,0,1,2,57407,91779,62709,-73,-220,970
05.10.2024 20:27:30:399,1820,0,1,2,57408,91778,62708,-69,-229,970
05.10.2024 20:27:30:403,1821,0,1,2,57413,91779,62709,-65,-227,972
05.10.2024 20:27:30:407,1822,0,1,2,57409,91770,62704,-70,-227,968
05.10.2024 20:27:30:411,1823,0,1,2,57408,91765,62706,-70,-232,972
05.10.2024 20:27:30:415,1824,0,1,2,57407,91770,62704,-65,-232,971
05.10.2024 20:27:30:419,1825,0,1,2,57408,91766,62702,-73,-231,970
05.10.2024 20:27:30:423,1826,0,1,2,57404,91767,62704,-69,-236,963
05.10.2024 20:27:30:426,1827,0,1,2,57402,91770,62701,-73,-231,969
05.10.2024 20:27:30:430,1828,0,1,2,57405,91770,62703,-71,-231,971
05.10.2024 20:27:30:434,1829,0,1,2,57404,91772,62703,-70,-227,969
05.10.2024 20:27:30:438,1830,0,1,2,57406,91768,62703,-71,-227,968
05.10.2024 20:27:30:442,1831,0,1,2,57405,91768,62706,-74,-233,967
05.10.2024 20:27:30:446,1832,0,1,2,57407,91768,62702,-68,-231,971
05.10.2024 20:27:30:450,1833,0,1,2,57409,91765,62700,-71,-234,970
05.10.2024 20:27:30:454,1834,0,1,2,57404,91766,62701,-72,-231,971
05.10.2024 20:27:30:458,1835,0,1,2,57410,91767,62700,-70,-233,971
