Timestamp[Day.Month.Year Hour:Minute:Second:Milisecond],sampleNum,tagLEDC1_PD1,tagLEDC2_PD1,tagLEDC3_PD1,LED1_PPG1,LED2_PPG1,LED3_PPG1,ACC_X[mg],ACC_Y[mg],ACC_Z[mg]
05.10.2024 20:30:06:667,1,0,1,2,62898,104041,66414,-48,-636,774
05.10.2024 20:30:06:671,2,0,1,2,62920,104150,66516,-50,-630,772
05.10.2024 20:30:06:675,3,0,1,2,62931,104274,66636,-49,-624,759
05.10.2024 20:30:06:679,4,0,1,2,62961,104414,66759,-52,-613,743
05.10.2024 20:30:06:683,5,0,1,2,62972,104559,66884,-66,-632,696
05.10.2024 20:30:06:687,6,0,1,2,62988,104679,66991,-79,-649,671
05.10.2024 20:30:06:691,7,0,1,2,63008,104790,67087,-87,-637,700
05.10.2024 20:30:06:695,8,0,1,2,63021,104889,67176,-73,-623,765
05.10.2024 20:30:06:699,9,0,1,2,63040,104965,67234,-58,-605,773
05.10.2024 20:30:06:703,10,0,1,2,63048,104989,67248,-40,-642,730
05.10.2024 20:30:06:706,11,0,1,2,63059,104961,67231,-24,-700,802
05.10.2024 20:30:06:710,12,0,1,2,63049,104910,67200,10,-771,838
05.10.2024 20:30:06:714,13,0,1,2,63056,104871,67178,22,-760,839
05.10.2024 20:30:06:718,14,0,1,2,63047,104835,67155,19,-703,887
05.10.2024 20:30:06:722,15,0,1,2,63029,104800,67128,-4,-666,879
05.10.2024 20:30:06:726,16,0,1,2,63020,104761,67094,-8,-651,878
05.10.2024 20:30:06:730,17,0,1,2,63001,104711,67061,-6,-623,871
05.10.2024 20:30:06:734,18,0,1,2,62991,104667,67034,-14,-619,848
05.10.2024 20:30:06:738,19,0,1,2,62975,104632,67005,-31,-621,851
05.10.2024 20:30:06:742,20,0,1,2,62954,104600,66980,-18,-653,870
05.10.2024 20:30:06:745,21,0,1,2,62924,104578,66961,-12,-653,855
05.10.2024 20:30:06:749,22,0,1,2,62905,104570,66954,-19,-615,819
05.10.2024 20:30:06:753,23,0,1,2,62879,104552,66944,-27,-613,836
05.10.2024 20:30:06:757,24,0,1,2,62856,104553,66940,-39,-572,797
05.10.2024 20:30:06:761,25,0,1,2,62823,104558,66943,-54,-520,778
05.10.2024 20:30:06:765,26,0,1,2,62796,104556,66942,-61,-524,780
05.10.2024 20:30:06:769,27,0,1,2,62757,104559,66935,-56,-541,772
05.10.2024 20:30:06:773,28,0,1,2,62729,104555,66938,-48,-537,770
05.10.2024 20:30:06:777,29,0,1,2,62696,104553,66930,-42,-523,770
05.10.2024 20:30:06:781,30,0,1,2,62663,104550,66919,-47,-525,785
05.10.2024 20:30:06:784,31,0,1,2,62634,104541,66912,-57,-507,800
05.10.2024 20:30:06:788,32,0,1,2,62601,104525,66901,-63,-505,806
05.10.2024 20:30:06:792,33,0,1,2,62562,104504,66885,-60,-509,812
05.10.2024 20:30:06:796,34,0,1,2,62544,104482,66874,-57,-512,803
05.10.2024 20:30:06:800,35,0,1,2,62508,104459,66847,-55,-517,812
05.10.2024 20:30:06:804,36,0,1,2,62482,104433,66825,-53,-550,827
05.10.2024 20:30:06:808,37,0,1,2,62451,104397,66805,-56,-569,842
05.10.2024 20:30:06:812,38,0,1,2,62429,104369,66787,-58,-567,847
05.10.2024 20:30:06:816,39,0,1,2,62407,104348,66769,-52,-576,858
05.10.2024 20:30:06:820,40,0,1,2,62390,104326,66761,-49,-581,862
05.10.2024 20:30:06:824,41,0,1,2,62366,104306,66750,-54,-599,856
05.10.2024 20:30:06:827,42,0,1,2,62342,104287,66741,-58,-592,851
05.10.2024 20:30:06:831,43,0,1,2,62331,104271,66732,-62,-589,844
05.10.2024 20:30:06:835,44,0,1,2,62317,104248,66723,-70,-563,842
05.10.2024 20:30:06:839,45,0,1,2,62286,104226,66707,-73,-550,835
05.10.2024 20:30:06:843,46,0,1,2,62269,104202,66695,-64,-533,820
05.10.2024 20:30:06:847,47,0,1,2,62256,104168,66679,-64,-529,820
05.10.2024 20:30:06:851,48,0,1,2,62239,104138,66659,-58,-520,817
05.10.2024 20:30:06:855,49,0,1,2,62225,104095,66632,-66,-511,815
05.10.2024 20:30:06:859,50,0,1,2,62198,104052,66604,-66,-491,807
05.10.2024 20:30:06:863,51,0,1,2,62182,104015,66588,-92,-442,791
05.10.2024 20:30:06:866,52,0,1,2,62170,103977,66568,-98,-407,785
05.10.2024 20:30:06:870,53,0,1,2,62155,103932,66545,-103,-388,798
05.10.2024 20:30:06:874,54,0,1,2,62161,103885,66518,-71,-426,820
05.10.2024 20:30:06:878,55,0,1,2,62154,103824,66486,-66,-452,824
05.10.2024 20:30:06:882,56,0,1,2,62160,103754,66448,-41,-478,846
05.10.2024 20:30:06:886,57,0,1,2,62168,103677,66407,-47,-487,854
05.10.2024 20:30:06:890,58,0,1,2,62183,103592,66359,-46,-497,867
05.10.2024 20:30:06:894,59,0,1,2,62202,103491,66306,-53,-523,875
05.10.2024 20:30:06:898,60,0,1,2,62228,103386,66251,-47,-537,875
05.10.2024 20:30:06:902,61,0,1,2,62249,103279,66200,-48,-557,879
05.10.2024 20:30:06:905,62,0,1,2,62269,103174,66140,-42,-567,873
05.10.2024 20:30:06:909,63,0,1,2,62286,103068,66083,-47,-565,868
05.10.2024 20:30:06:913,64,0,1,2,62307,102966,66038,-50,-559,854
05.10.2024 20:30:06:917,65,0,1,2,62318,102870,65989,-57,-548,843
05.10.2024 20:30:06:921,66,0,1,2,62339,102772,65938,-65,-537,831
05.10.2024 20:30:06:925,67,0,1,2,62341,102666,65876,-61,-531,824
05.10.2024 20:30:06:929,68,0,1,2,62349,102550,65815,-56,-524,832
05.10.2024 20:30:06:933,69,0,1,2,62357,102435,65746,-56,-530,831
05.10.2024 20:30:06:937,70,0,1,2,62363,102317,65680,-62,-530,842
05.10.2024 20:30:06:941,71,0,1,2,62373,102212,65620,-61,-524,839
05.10.2024 20:30:06:945,72,0,1,2,62379,102114,65562,-63,-524,840
05.10.2024 20:30:06:948,73,0,1,2,62370,102023,65510,-61,-516,840
05.10.2024 20:30:06:952,74,0,1,2,62364,101937,65460,-59,-506,850
05.10.2024 20:30:06:956,75,0,1,2,62360,101866,65421,-53,-497,859
05.10.2024 20:30:06:960,76,0,1,2,62338,101796,65381,-48,-496,862
05.10.2024 20:30:06:964,77,0,1,2,62317,101729,65343,-46,-491,864
05.10.2024 20:30:06:968,78,0,1,2,62303,101671,65313,-47,-494,868
05.10.2024 20:30:06:972,79,0,1,2,62267,101620,65288,-51,-504,863
05.10.2024 20:30:06:976,80,0,1,2,62230,101564,65260,-50,-509,872
05.10.2024 20:30:06:980,81,0,1,2,62200,101510,65231,-48,-516,872
05.10.2024 20:30:06:984,82,0,1,2,62170,101467,65212,-48,-525,872
05.10.2024 20:30:06:987,83,0,1,2,62144,101413,65198,-49,-535,868
05.10.2024 20:30:06:991,84,0,1,2,62116,101376,65181,-46,-542,856
05.10.2024 20:30:06:995,85,0,1,2,62092,101333,65165,-55,-537,843
05.10.2024 20:30:06:999,86,0,1,2,62075,101288,65146,-55,-535,839
05.10.2024 20:30:07:3,87,0,1,2,62049,101235,65122,-69,-527,813
05.10.2024 20:30:07:7,88,0,1,2,62033,101191,65096,-84,-516,807
05.10.2024 20:30:07:11,89,0,1,2,62011,101135,65067,-79,-512,804
05.10.2024 20:30:07:15,90,0,1,2,61997,101066,65028,-85,-515,810
05.10.2024 20:30:07:19,91,0,1,2,61982,101008,64989,-80,-521,810
05.10.2024 20:30:07:23,92,0,1,2,61961,100937,64945,-81,-526,822
05.10.2024 20:30:07:26,93,0,1,2,61948,100869,64901,-72,-540,830
05.10.2024 20:30:07:30,94,0,1,2,61929,100806,64857,-73,-546,835
05.10.2024 20:30:07:34,95,0,1,2,61911,100738,64813,-67,-545,853
05.10.2024 20:30:07:38,96,0,1,2,61899,100670,64770,-63,-548,851
05.10.2024 20:30:07:42,97,0,1,2,61887,100610,64723,-70,-542,823
05.10.2024 20:30:07:46,98,0,1,2,61864,100555,64689,-85,-489,813
05.10.2024 20:30:07:50,99,0,1,2,61850,100499,64645,-96,-461,811
05.10.2024 20:30:07:54,100,0,1,2,61830,100438,64605,-101,-434,803
05.10.2024 20:30:07:58,101,0,1,2,61804,100375,64564,-103,-439,788
05.10.2024 20:30:07:62,102,0,1,2,61782,100328,64526,-94,-464,846
05.10.2024 20:30:07:66,103,0,1,2,61770,100273,64489,-84,-488,883
05.10.2024 20:30:07:69,104,0,1,2,61743,100214,64449,-70,-547,778
05.10.2024 20:30:07:73,105,0,1,2,61711,100158,64413,-34,-647,880
05.10.2024 20:30:07:77,106,0,1,2,61690,100108,64365,-22,-688,878
05.10.2024 20:30:07:81,107,0,1,2,61652,100062,64330,-16,-733,895
05.10.2024 20:30:07:85,108,0,1,2,61629,100028,64295,3,-754,969
05.10.2024 20:30:07:89,109,0,1,2,61599,99990,64272,10,-769,991
05.10.2024 20:30:07:93,110,0,1,2,61562,99976,64247,23,-767,1014
05.10.2024 20:30:07:97,111,0,1,2,61532,99951,64231,35,-767,1011
05.10.2024 20:30:07:101,112,0,1,2,61509,99934,64217,15,-733,991
05.10.2024 20:30:07:105,113,0,1,2,61472,99920,64208,0,-694,974
05.10.2024 20:30:07:108,114,0,1,2,61454,99910,64194,-39,-596,916
05.10.2024 20:30:07:112,115,0,1,2,61428,99900,64188,-69,-502,848
05.10.2024 20:30:07:116,116,0,1,2,61404,99885,64183,-78,-475,816
05.10.2024 20:30:07:120,117,0,1,2,61382,99876,64180,-90,-445,787
05.10.2024 20:30:07:124,118,0,1,2,61359,99874,64184,-90,-435,776
05.10.2024 20:30:07:128,119,0,1,2,61336,99873,64184,-97,-410,752
05.10.2024 20:30:07:132,120,0,1,2,61308,99875,64187,-97,-398,748
05.10.2024 20:30:07:136,121,0,1,2,61278,99881,64191,-106,-352,729
05.10.2024 20:30:07:140,122,0,1,2,61258,99885,64196,-122,-317,724
05.10.2024 20:30:07:144,123,0,1,2,61233,99895,64193,-131,-302,738
05.10.2024 20:30:07:147,124,0,1,2,61209,99893,64194,-138,-282,795
05.10.2024 20:30:07:151,125,0,1,2,61187,99896,64188,-138,-282,814
05.10.2024 20:30:07:155,126,0,1,2,61170,99890,64182,-117,-320,861
05.10.2024 20:30:07:159,127,0,1,2,61145,99868,64168,-82,-381,893
05.10.2024 20:30:07:163,128,0,1,2,61127,99850,64149,-67,-414,908
05.10.2024 20:30:07:167,129,0,1,2,61116,99821,64129,-52,-476,914
05.10.2024 20:30:07:171,130,0,1,2,61101,99797,64114,-47,-496,915
05.10.2024 20:30:07:175,131,0,1,2,61101,99767,64089,-53,-524,907
05.10.2024 20:30:07:179,132,0,1,2,61084,99737,64072,-62,-542,888
05.10.2024 20:30:07:183,133,0,1,2,61074,99716,64055,-71,-543,887
05.10.2024 20:30:07:187,134,0,1,2,61063,99694,64040,-77,-543,872
05.10.2024 20:30:07:190,135,0,1,2,61057,99677,64023,-78,-535,861
05.10.2024 20:30:07:194,136,0,1,2,61039,99657,64009,-85,-536,863
05.10.2024 20:30:07:198,137,0,1,2,61022,99642,64007,-84,-539,854
05.10.2024 20:30:07:202,138,0,1,2,61004,99634,63994,-78,-531,861
05.10.2024 20:30:07:206,139,0,1,2,60999,99616,63981,-83,-530,867
05.10.2024 20:30:07:210,140,0,1,2,60996,99609,63974,-72,-532,867
05.10.2024 20:30:07:214,141,0,1,2,60972,99604,63969,-75,-532,864
05.10.2024 20:30:07:218,142,0,1,2,60961,99592,63964,-79,-528,865
05.10.2024 20:30:07:222,143,0,1,2,60944,99582,63958,-75,-529,865
05.10.2024 20:30:07:226,144,0,1,2,60943,99578,63955,-80,-519,856
05.10.2024 20:30:07:229,145,0,1,2,60938,99572,63944,-80,-512,852
05.10.2024 20:30:07:233,146,0,1,2,60923,99565,63944,-80,-511,852
05.10.2024 20:30:07:237,147,0,1,2,60915,99563,63938,-78,-506,845
05.10.2024 20:30:07:241,148,0,1,2,60909,99551,63936,-78,-504,840
05.10.2024 20:30:07:245,149,0,1,2,60903,99544,63932,-79,-510,845
05.10.2024 20:30:07:249,150,0,1,2,60892,99541,63933,-76,-514,846
05.10.2024 20:30:07:253,151,0,1,2,60886,99528,63924,-75,-520,838
05.10.2024 20:30:07:257,152,0,1,2,60876,99529,63921,-74,-521,848
05.10.2024 20:30:07:261,153,0,1,2,60878,99522,63917,-82,-522,844
05.10.2024 20:30:07:265,154,0,1,2,60865,99518,63916,-86,-527,848
05.10.2024 20:30:07:268,155,0,1,2,60862,99520,63917,-89,-528,834
05.10.2024 20:30:07:272,156,0,1,2,60862,99514,63916,-85,-529,838
05.10.2024 20:30:07:276,157,0,1,2,60853,99513,63920,-91,-524,851
05.10.2024 20:30:07:280,158,0,1,2,60853,99514,63915,-82,-524,868
05.10.2024 20:30:07:284,159,0,1,2,60842,99511,63918,-73,-518,869
05.10.2024 20:30:07:288,160,0,1,2,60839,99517,63922,-62,-505,887
05.10.2024 20:30:07:292,161,0,1,2,60839,99523,63932,-57,-492,906
05.10.2024 20:30:07:296,162,0,1,2,60836,99519,63933,-58,-487,886
05.10.2024 20:30:07:300,163,0,1,2,60842,99514,63937,-69,-454,877
05.10.2024 20:30:07:304,164,0,1,2,60833,99503,63929,-76,-440,838
05.10.2024 20:30:07:308,165,0,1,2,60834,99487,63924,-106,-418,706
05.10.2024 20:30:07:311,166,0,1,2,60843,99466,63914,-154,-358,694
05.10.2024 20:30:07:315,167,0,1,2,60840,99448,63907,-171,-333,732
05.10.2024 20:30:07:319,168,0,1,2,60838,99428,63891,-162,-395,788
05.10.2024 20:30:07:323,169,0,1,2,60843,99401,63881,-100,-530,831
05.10.2024 20:30:07:327,170,0,1,2,60839,99379,63861,-78,-593,854
05.10.2024 20:30:07:331,171,0,1,2,60830,99362,63851,-59,-629,904
05.10.2024 20:30:07:335,172,0,1,2,60836,99352,63843,-49,-625,910
05.10.2024 20:30:07:339,173,0,1,2,60831,99346,63839,-57,-590,913
05.10.2024 20:30:07:343,174,0,1,2,60812,99330,63828,-69,-585,918
05.10.2024 20:30:07:347,175,0,1,2,60806,99316,63820,-62,-608,946
05.10.2024 20:30:07:350,176,0,1,2,60798,99309,63809,-53,-623,942
05.10.2024 20:30:07:354,177,0,1,2,60783,99303,63806,-40,-639,943
05.10.2024 20:30:07:358,178,0,1,2,60789,99300,63803,-37,-626,934
05.10.2024 20:30:07:362,179,0,1,2,60771,99298,63805,-35,-602,930
05.10.2024 20:30:07:366,180,0,1,2,60760,99307,63820,-36,-540,922
05.10.2024 20:30:07:370,181,0,1,2,60753,99312,63819,-39,-506,911
05.10.2024 20:30:07:374,182,0,1,2,60742,99319,63829,-50,-460,882
05.10.2024 20:30:07:378,183,0,1,2,60737,99329,63837,-61,-422,846
05.10.2024 20:30:07:382,184,0,1,2,60726,99325,63837,-65,-421,833
05.10.2024 20:30:07:386,185,0,1,2,60724,99323,63842,-72,-426,815
05.10.2024 20:30:07:389,186,0,1,2,60724,99319,63839,-76,-425,808
05.10.2024 20:30:07:393,187,0,1,2,60713,99313,63838,-87,-438,804
05.10.2024 20:30:07:397,188,0,1,2,60717,99305,63836,-82,-449,806
05.10.2024 20:30:07:401,189,0,1,2,60709,99291,63828,-81,-457,804
05.10.2024 20:30:07:405,190,0,1,2,60705,99279,63830,-76,-465,819
05.10.2024 20:30:07:409,191,0,1,2,60699,99270,63820,-69,-480,822
05.10.2024 20:30:07:413,192,0,1,2,60695,99256,63813,-72,-478,839
05.10.2024 20:30:07:417,193,0,1,2,60695,99246,63807,-69,-484,845
05.10.2024 20:30:07:421,194,0,1,2,60693,99229,63798,-68,-488,859
05.10.2024 20:30:07:425,195,0,1,2,60687,99210,63786,-67,-493,865
05.10.2024 20:30:07:429,196,0,1,2,60684,99192,63772,-61,-502,868
05.10.2024 20:30:07:432,197,0,1,2,60678,99174,63763,-58,-514,874
05.10.2024 20:30:07:436,198,0,1,2,60681,99151,63757,-54,-522,885
05.10.2024 20:30:07:440,199,0,1,2,60678,99134,63747,-54,-530,881
05.10.2024 20:30:07:444,200,0,1,2,60677,99119,63740,-54,-533,868
05.10.2024 20:30:07:448,201,0,1,2,60673,99098,63730,-55,-524,870
05.10.2024 20:30:07:452,202,0,1,2,60671,99081,63720,-57,-531,859
05.10.2024 20:30:07:456,203,0,1,2,60679,99061,63713,-64,-524,854
05.10.2024 20:30:07:460,204,0,1,2,60675,99038,63703,-69,-520,850
05.10.2024 20:30:07:464,205,0,1,2,60677,99022,63696,-68,-514,845
05.10.2024 20:30:07:468,206,0,1,2,60674,98999,63686,-67,-515,847
05.10.2024 20:30:07:471,207,0,1,2,60669,98982,63679,-68,-519,841
05.10.2024 20:30:07:475,208,0,1,2,60664,98959,63661,-74,-524,835
05.10.2024 20:30:07:479,209,0,1,2,60671,98932,63653,-71,-518,840
05.10.2024 20:30:07:483,210,0,1,2,60668,98903,63638,-74,-525,837
05.10.2024 20:30:07:487,211,0,1,2,60671,98881,63629,-70,-526,839
05.10.2024 20:30:07:491,212,0,1,2,60668,98851,63612,-81,-533,843
05.10.2024 20:30:07:495,213,0,1,2,60659,98823,63598,-78,-539,850
05.10.2024 20:30:07:499,214,0,1,2,60656,98792,63581,-76,-543,852
05.10.2024 20:30:07:503,215,0,1,2,60660,98757,63564,-79,-547,846
05.10.2024 20:30:07:507,216,0,1,2,60655,98730,63551,-79,-545,852
05.10.2024 20:30:07:510,217,0,1,2,60651,98705,63538,-76,-553,847
05.10.2024 20:30:07:514,218,0,1,2,60642,98685,63525,-81,-553,844
05.10.2024 20:30:07:518,219,0,1,2,60631,98659,63511,-79,-555,837
05.10.2024 20:30:07:522,220,0,1,2,60632,98638,63496,-82,-555,839
05.10.2024 20:30:07:526,221,0,1,2,60618,98609,63488,-80,-549,830
05.10.2024 20:30:07:530,222,0,1,2,60611,98595,63475,-76,-553,836
05.10.2024 20:30:07:534,223,0,1,2,60607,98568,63463,-81,-551,833
05.10.2024 20:30:07:538,224,0,1,2,60597,98549,63450,-84,-547,824
05.10.2024 20:30:07:542,225,0,1,2,60594,98522,63438,-83,-546,822
05.10.2024 20:30:07:546,226,0,1,2,60585,98500,63425,-78,-547,831
05.10.2024 20:30:07:550,227,0,1,2,60579,98479,63415,-77,-549,825
05.10.2024 20:30:07:553,228,0,1,2,60581,98458,63403,-75,-548,827
05.10.2024 20:30:07:557,229,0,1,2,60570,98440,63392,-76,-547,833
05.10.2024 20:30:07:561,230,0,1,2,60558,98417,63381,-70,-548,828
05.10.2024 20:30:07:565,231,0,1,2,60562,98396,63370,-72,-542,837
05.10.2024 20:30:07:569,232,0,1,2,60551,98375,63357,-70,-541,845
05.10.2024 20:30:07:573,233,0,1,2,60542,98352,63347,-66,-540,837
05.10.2024 20:30:07:577,234,0,1,2,60532,98336,63336,-67,-536,846
05.10.2024 20:30:07:581,235,0,1,2,60526,98310,63318,-71,-541,842
05.10.2024 20:30:07:585,236,0,1,2,60520,98291,63305,-69,-541,845
05.10.2024 20:30:07:589,237,0,1,2,60506,98267,63290,-72,-534,843
05.10.2024 20:30:07:592,238,0,1,2,60509,98242,63273,-73,-537,852
05.10.2024 20:30:07:596,239,0,1,2,60496,98218,63267,-70,-529,846
05.10.2024 20:30:07:600,240,0,1,2,60495,98200,63255,-72,-529,837
05.10.2024 20:30:07:604,241,0,1,2,60489,98176,63247,-75,-532,843
05.10.2024 20:30:07:608,242,0,1,2,60482,98161,63231,-73,-526,840
05.10.2024 20:30:07:612,243,0,1,2,60479,98139,63225,-71,-525,846
05.10.2024 20:30:07:616,244,0,1,2,60472,98119,63213,-71,-524,836
05.10.2024 20:30:07:620,245,0,1,2,60465,98103,63203,-73,-522,847
05.10.2024 20:30:07:624,246,0,1,2,60461,98082,63191,-69,-521,844
05.10.2024 20:30:07:628,247,0,1,2,60451,98065,63176,-66,-527,847
05.10.2024 20:30:07:631,248,0,1,2,60449,98043,63164,-68,-533,842
05.10.2024 20:30:07:635,249,0,1,2,60443,98022,63156,-67,-535,845
05.10.2024 20:30:07:639,250,0,1,2,60432,98000,63148,-69,-538,842
05.10.2024 20:30:07:643,251,0,1,2,60425,97989,63139,-65,-535,840
05.10.2024 20:30:07:647,252,0,1,2,60423,97968,63131,-69,-537,838
05.10.2024 20:30:07:651,253,0,1,2,60421,97949,63115,-70,-541,835
05.10.2024 20:30:07:655,254,0,1,2,60415,97926,63106,-67,-536,840
05.10.2024 20:30:07:659,255,0,1,2,60415,97911,63095,-77,-540,834
05.10.2024 20:30:07:663,256,0,1,2,60408,97892,63083,-74,-547,827
05.10.2024 20:30:07:667,257,0,1,2,60399,97876,63073,-69,-542,837
05.10.2024 20:30:07:670,258,0,1,2,60398,97861,63064,-74,-546,830
05.10.2024 20:30:07:674,259,0,1,2,60397,97842,63058,-71,-545,829
05.10.2024 20:30:07:678,260,0,1,2,60396,97829,63046,-74,-541,840
05.10.2024 20:30:07:682,261,0,1,2,60385,97812,63039,-68,-539,834
05.10.2024 20:30:07:686,262,0,1,2,60382,97799,63026,-76,-544,837
05.10.2024 20:30:07:690,263,0,1,2,60374,97779,63023,-73,-540,836
05.10.2024 20:30:07:694,264,0,1,2,60372,97769,63015,-74,-540,833
05.10.2024 20:30:07:698,265,0,1,2,60368,97750,63005,-75,-541,836
05.10.2024 20:30:07:702,266,0,1,2,60362,97736,62994,-73,-541,839
05.10.2024 20:30:07:706,267,0,1,2,60358,97723,62986,-73,-540,841
05.10.2024 20:30:07:710,268,0,1,2,60354,97717,62978,-71,-536,839
05.10.2024 20:30:07:713,269,0,1,2,60356,97696,62972,-71,-540,834
05.10.2024 20:30:07:717,270,0,1,2,60352,97680,62964,-74,-536,841
05.10.2024 20:30:07:721,271,0,1,2,60345,97667,62952,-76,-532,836
05.10.2024 20:30:07:725,272,0,1,2,60345,97646,62946,-74,-540,835
05.10.2024 20:30:07:729,273,0,1,2,60338,97636,62935,-68,-534,843
05.10.2024 20:30:07:733,274,0,1,2,60339,97624,62927,-70,-539,835
05.10.2024 20:30:07:737,275,0,1,2,60333,97609,62920,-74,-527,833
05.10.2024 20:30:07:741,276,0,1,2,60327,97591,62910,-71,-524,834
05.10.2024 20:30:07:745,277,0,1,2,60320,97583,62902,-70,-551,842
05.10.2024 20:30:07:749,278,0,1,2,60318,97572,62897,-81,-549,839
05.10.2024 20:30:07:752,279,0,1,2,60320,97559,62889,-80,-544,837
05.10.2024 20:30:07:756,280,0,1,2,60307,97543,62885,-78,-540,833
05.10.2024 20:30:07:760,281,0,1,2,60309,97531,62879,-73,-535,837
05.10.2024 20:30:07:764,282,0,1,2,60297,97522,62873,-72,-538,831
05.10.2024 20:30:07:768,283,0,1,2,60291,97503,62864,-71,-532,828
05.10.2024 20:30:07:772,284,0,1,2,60291,97494,62857,-74,-535,830
05.10.2024 20:30:07:776,285,0,1,2,60274,97474,62847,-75,-541,833
05.10.2024 20:30:07:780,286,0,1,2,60271,97463,62842,-71,-541,833
05.10.2024 20:30:07:784,287,0,1,2,60260,97446,62835,-74,-541,836
05.10.2024 20:30:07:788,288,0,1,2,60253,97435,62826,-74,-543,828
05.10.2024 20:30:07:791,289,0,1,2,60242,97420,62824,-73,-547,832
05.10.2024 20:30:07:795,290,0,1,2,60238,97414,62817,-76,-541,828
05.10.2024 20:30:07:799,291,0,1,2,60222,97405,62812,-75,-542,832
05.10.2024 20:30:07:803,292,0,1,2,60206,97388,62800,-75,-542,835
05.10.2024 20:30:07:807,293,0,1,2,60196,97372,62795,-74,-541,837
05.10.2024 20:30:07:811,294,0,1,2,60176,97359,62788,-71,-547,838
05.10.2024 20:30:07:815,295,0,1,2,60162,97345,62778,-67,-547,839
05.10.2024 20:30:07:819,296,0,1,2,60135,97328,62770,-72,-547,835
05.10.2024 20:30:07:823,297,0,1,2,60132,97321,62763,-71,-547,828
05.10.2024 20:30:07:827,298,0,1,2,60105,97307,62765,-72,-540,839
05.10.2024 20:30:07:831,299,0,1,2,60092,97295,62752,-73,-542,834
05.10.2024 20:30:07:834,300,0,1,2,60066,97282,62748,-69,-537,841
05.10.2024 20:30:07:838,301,0,1,2,60055,97271,62740,-68,-539,838
05.10.2024 20:30:07:842,302,0,1,2,60040,97261,62737,-69,-543,832
05.10.2024 20:30:07:846,303,0,1,2,60022,97249,62732,-65,-539,839
05.10.2024 20:30:07:850,304,0,1,2,60005,97237,62725,-67,-542,834
05.10.2024 20:30:07:854,305,0,1,2,59993,97231,62720,-68,-538,838
05.10.2024 20:30:07:858,306,0,1,2,59982,97221,62716,-73,-537,842
05.10.2024 20:30:07:862,307,0,1,2,59966,97206,62713,-77,-533,844
05.10.2024 20:30:07:866,308,0,1,2,59951,97198,62702,-70,-542,840
05.10.2024 20:30:07:870,309,0,1,2,59931,97183,62696,-72,-540,837
05.10.2024 20:30:07:873,310,0,1,2,59925,97175,62691,-77,-537,838
05.10.2024 20:30:07:877,311,0,1,2,59914,97164,62684,-74,-533,834
05.10.2024 20:30:07:881,312,0,1,2,59906,97153,62678,-63,-548,834
05.10.2024 20:30:07:885,313,0,1,2,59899,97143,62670,-68,-545,837
05.10.2024 20:30:07:889,314,0,1,2,59886,97126,62669,-76,-544,838
05.10.2024 20:30:07:893,315,0,1,2,59878,97121,62658,-72,-551,835
05.10.2024 20:30:07:897,316,0,1,2,59872,97113,62652,-70,-541,833
05.10.2024 20:30:07:901,317,0,1,2,59866,97099,62649,-75,-539,834
05.10.2024 20:30:07:905,318,0,1,2,59862,97088,62643,-70,-541,838
05.10.2024 20:30:07:909,319,0,1,2,59852,97078,62638,-72,-550,837
05.10.2024 20:30:07:912,320,0,1,2,59846,97072,62632,-73,-549,830
05.10.2024 20:30:07:916,321,0,1,2,59834,97067,62629,-71,-543,836
05.10.2024 20:30:07:920,322,0,1,2,59835,97061,62623,-75,-545,836
05.10.2024 20:30:07:924,323,0,1,2,59829,97051,62619,-76,-542,830
05.10.2024 20:30:07:928,324,0,1,2,59823,97048,62615,-73,-537,837
05.10.2024 20:30:07:932,325,0,1,2,59821,97041,62611,-74,-542,834
05.10.2024 20:30:07:936,326,0,1,2,59813,97027,62605,-71,-540,828
05.10.2024 20:30:07:940,327,0,1,2,59813,97019,62602,-74,-544,834
05.10.2024 20:30:07:944,328,0,1,2,59812,97011,62600,-68,-540,833
05.10.2024 20:30:07:948,329,0,1,2,59805,97005,62593,-67,-545,830
05.10.2024 20:30:07:952,330,0,1,2,59807,96998,62588,-72,-546,829
05.10.2024 20:30:07:955,331,0,1,2,59800,96988,62585,-73,-551,834
05.10.2024 20:30:07:959,332,0,1,2,59792,96981,62583,-72,-549,837
05.10.2024 20:30:07:963,333,0,1,2,59793,96978,62577,-68,-543,833
05.10.2024 20:30:07:967,334,0,1,2,59793,96968,62574,-69,-542,836
05.10.2024 20:30:07:971,335,0,1,2,59787,96970,62570,-79,-542,832
05.10.2024 20:30:07:975,336,0,1,2,59780,96960,62564,-72,-542,835
05.10.2024 20:30:07:979,337,0,1,2,59785,96954,62562,-66,-538,842
05.10.2024 20:30:07:983,338,0,1,2,59782,96947,62563,-73,-546,835
05.10.2024 20:30:07:987,339,0,1,2,59774,96941,62555,-76,-544,829
05.10.2024 20:30:07:991,340,0,1,2,59769,96930,62553,-72,-541,833
05.10.2024 20:30:07:994,341,0,1,2,59771,96927,62547,-70,-541,833
05.10.2024 20:30:07:998,342,0,1,2,59771,96922,62544,-72,-540,835
05.10.2024 20:30:08:2,343,0,1,2,59767,96910,62538,-76,-546,828
05.10.2024 20:30:08:6,344,0,1,2,59761,96908,62540,-75,-542,834
05.10.2024 20:30:08:10,345,0,1,2,59758,96903,62533,-72,-543,835
05.10.2024 20:30:08:14,346,0,1,2,59753,96894,62525,-76,-541,831
05.10.2024 20:30:08:18,347,0,1,2,59757,96889,62523,-71,-545,833
05.10.2024 20:30:08:22,348,0,1,2,59749,96884,62519,-71,-543,831
05.10.2024 20:30:08:26,349,0,1,2,59750,96880,62515,-72,-540,834
05.10.2024 20:30:08:30,350,0,1,2,59748,96874,62514,-74,-539,839
05.10.2024 20:30:08:33,351,0,1,2,59737,96864,62506,-75,-546,837
05.10.2024 20:30:08:37,352,0,1,2,59734,96856,62506,-75,-541,837
05.10.2024 20:30:08:41,353,0,1,2,59731,96851,62503,-71,-540,832
05.10.2024 20:30:08:45,354,0,1,2,59728,96845,62496,-74,-544,833
05.10.2024 20:30:08:49,355,0,1,2,59724,96842,62493,-73,-546,834
05.10.2024 20:30:08:53,356,0,1,2,59718,96832,62491,-73,-545,836
05.10.2024 20:30:08:57,357,0,1,2,59716,96827,62489,-68,-540,834
05.10.2024 20:30:08:61,358,0,1,2,59703,96820,62487,-73,-541,833
05.10.2024 20:30:08:65,359,0,1,2,59704,96813,62481,-71,-543,831
05.10.2024 20:30:08:69,360,0,1,2,59698,96810,62476,-66,-542,838
05.10.2024 20:30:08:73,361,0,1,2,59694,96803,62475,-70,-546,833
05.10.2024 20:30:08:76,362,0,1,2,59688,96796,62467,-71,-542,834
05.10.2024 20:30:08:80,363,0,1,2,59678,96789,62466,-69,-546,835
05.10.2024 20:30:08:84,364,0,1,2,59674,96779,62465,-70,-542,832
05.10.2024 20:30:08:88,365,0,1,2,59661,96775,62458,-68,-542,839
05.10.2024 20:30:08:92,366,0,1,2,59658,96766,62457,-64,-548,830
05.10.2024 20:30:08:96,367,0,1,2,59649,96767,62448,-71,-544,839
05.10.2024 20:30:08:100,368,0,1,2,59644,96752,62446,-76,-544,835
05.10.2024 20:30:08:104,369,0,1,2,59640,96747,62441,-72,-543,832
05.10.2024 20:30:08:108,370,0,1,2,59631,96732,62438,-69,-543,827
05.10.2024 20:30:08:112,371,0,1,2,59627,96730,62435,-67,-548,837
05.10.2024 20:30:08:115,372,0,1,2,59618,96726,62428,-70,-551,833
05.10.2024 20:30:08:119,373,0,1,2,59608,96718,62423,-73,-547,832
05.10.2024 20:30:08:123,374,0,1,2,59601,96707,62421,-75,-545,829
05.10.2024 20:30:08:127,375,0,1,2,59602,96705,62414,-77,-545,830
05.10.2024 20:30:08:131,376,0,1,2,59591,96702,62413,-68,-547,836
05.10.2024 20:30:08:135,377,0,1,2,59590,96691,62409,-66,-544,835
05.10.2024 20:30:08:139,378,0,1,2,59580,96688,62408,-72,-542,839
05.10.2024 20:30:08:143,379,0,1,2,59579,96679,62403,-67,-542,833
05.10.2024 20:30:08:147,380,0,1,2,59573,96677,62398,-71,-542,837
05.10.2024 20:30:08:151,381,0,1,2,59569,96670,62394,-71,-543,831
05.10.2024 20:30:08:154,382,0,1,2,59565,96659,62389,-73,-540,830
05.10.2024 20:30:08:158,383,0,1,2,59557,96658,62391,-70,-544,834
05.10.2024 20:30:08:162,384,0,1,2,59556,96648,62387,-69,-546,832
05.10.2024 20:30:08:166,385,0,1,2,59553,96647,62383,-74,-543,831
05.10.2024 20:30:08:170,386,0,1,2,59545,96643,62379,-70,-543,837
05.10.2024 20:30:08:174,387,0,1,2,59544,96635,62375,-73,-546,831
05.10.2024 20:30:08:178,388,0,1,2,59538,96627,62372,-74,-540,835
05.10.2024 20:30:08:182,389,0,1,2,59536,96626,62368,-76,-550,837
05.10.2024 20:30:08:186,390,0,1,2,59536,96617,62362,-72,-543,842
05.10.2024 20:30:08:190,391,0,1,2,59534,96616,62362,-71,-543,832
05.10.2024 20:30:08:194,392,0,1,2,59523,96611,62358,-68,-552,834
05.10.2024 20:30:08:197,393,0,1,2,59529,96607,62356,-67,-544,837
05.10.2024 20:30:08:201,394,0,1,2,59522,96595,62354,-71,-549,833
05.10.2024 20:30:08:205,395,0,1,2,59520,96594,62346,-67,-546,832
05.10.2024 20:30:08:209,396,0,1,2,59514,96593,62347,-68,-548,834
05.10.2024 20:30:08:213,397,0,1,2,59514,96586,62347,-76,-544,837
05.10.2024 20:30:08:217,398,0,1,2,59509,96585,62345,-71,-544,829
05.10.2024 20:30:08:221,399,0,1,2,59508,96577,62341,-66,-545,835
05.10.2024 20:30:08:225,400,0,1,2,59509,96575,62337,-73,-544,832
05.10.2024 20:30:08:229,401,0,1,2,59501,96572,62337,-71,-543,834
05.10.2024 20:30:08:233,402,0,1,2,59500,96570,62332,-71,-546,834
05.10.2024 20:30:08:236,403,0,1,2,59502,96567,62329,-74,-549,834
05.10.2024 20:30:08:240,404,0,1,2,59498,96559,62327,-70,-547,840
05.10.2024 20:30:08:244,405,0,1,2,59501,96555,62327,-67,-548,830
05.10.2024 20:30:08:248,406,0,1,2,59499,96554,62320,-67,-549,833
05.10.2024 20:30:08:252,407,0,1,2,59491,96547,62317,-63,-548,836
05.10.2024 20:30:08:256,408,0,1,2,59484,96539,62314,-66,-549,831
05.10.2024 20:30:08:260,409,0,1,2,59487,96535,62313,-67,-546,832
05.10.2024 20:30:08:264,410,0,1,2,59484,96531,62307,-74,-547,833
05.10.2024 20:30:08:268,411,0,1,2,59487,96526,62307,-69,-544,835
05.10.2024 20:30:08:272,412,0,1,2,59483,96528,62305,-71,-542,833
05.10.2024 20:30:08:275,413,0,1,2,59487,96514,62303,-69,-542,830
05.10.2024 20:30:08:279,414,0,1,2,59483,96516,62300,-74,-540,837
05.10.2024 20:30:08:283,415,0,1,2,59479,96511,62299,-74,-544,834
05.10.2024 20:30:08:287,416,0,1,2,59480,96514,62295,-70,-547,836
05.10.2024 20:30:08:291,417,0,1,2,59477,96501,62292,-75,-546,834
05.10.2024 20:30:08:295,418,0,1,2,59476,96502,62291,-72,-542,828
05.10.2024 20:30:08:299,419,0,1,2,59469,96497,62291,-65,-543,827
05.10.2024 20:30:08:303,420,0,1,2,59468,96493,62284,-65,-542,833
05.10.2024 20:30:08:307,421,0,1,2,59474,96490,62279,-70,-544,827
05.10.2024 20:30:08:311,422,0,1,2,59472,96486,62281,-70,-545,831
05.10.2024 20:30:08:315,423,0,1,2,59468,96482,62278,-69,-550,834
05.10.2024 20:30:08:318,424,0,1,2,59467,96482,62272,-75,-545,833
05.10.2024 20:30:08:322,425,0,1,2,59460,96474,62269,-69,-539,833
05.10.2024 20:30:08:326,426,0,1,2,59470,96469,62267,-70,-549,835
05.10.2024 20:30:08:330,427,0,1,2,59464,96464,62262,-71,-547,832
05.10.2024 20:30:08:334,428,0,1,2,59463,96453,62259,-69,-546,831
05.10.2024 20:30:08:338,429,0,1,2,59466,96460,62257,-70,-548,840
05.10.2024 20:30:08:342,430,0,1,2,59461,96449,62251,-68,-549,833
05.10.2024 20:30:08:346,431,0,1,2,59470,96440,62251,-68,-542,830
05.10.2024 20:30:08:350,432,0,1,2,59465,96441,62248,-68,-553,836
05.10.2024 20:30:08:354,433,0,1,2,59463,96439,62245,-73,-540,831
05.10.2024 20:30:08:357,434,0,1,2,59468,96434,62242,-68,-546,837
05.10.2024 20:30:08:361,435,0,1,2,59456,96432,62240,-69,-548,832
05.10.2024 20:30:08:365,436,0,1,2,59463,96426,62237,-69,-545,830
05.10.2024 20:30:08:369,437,0,1,2,59462,96423,62237,-71,-544,834
05.10.2024 20:30:08:373,438,0,1,2,59458,96426,62232,-70,-544,835
05.10.2024 20:30:08:377,439,0,1,2,59457,96415,62229,-66,-541,833
05.10.2024 20:30:08:381,440,0,1,2,59461,96412,62227,-69,-543,830
05.10.2024 20:30:08:385,441,0,1,2,59454,96409,62223,-72,-547,830
05.10.2024 20:30:08:389,442,0,1,2,59451,96398,62226,-69,-541,832
05.10.2024 20:30:08:393,443,0,1,2,59456,96400,62221,-70,-549,833
05.10.2024 20:30:08:396,444,0,1,2,59450,96403,62220,-71,-540,829
05.10.2024 20:30:08:400,445,0,1,2,59444,96396,62221,-68,-546,836
05.10.2024 20:30:08:404,446,0,1,2,59445,96394,62217,-72,-553,831
05.10.2024 20:30:08:408,447,0,1,2,59447,96388,62213,-76,-545,829
05.10.2024 20:30:08:412,448,0,1,2,59433,96381,62213,-74,-549,830
05.10.2024 20:30:08:416,449,0,1,2,59437,96380,62210,-75,-551,830
05.10.2024 20:30:08:420,450,0,1,2,59428,96378,62208,-78,-546,829
05.10.2024 20:30:08:424,451,0,1,2,59424,96368,62204,-71,-551,823
05.10.2024 20:30:08:428,452,0,1,2,59416,96370,62203,-73,-551,825
05.10.2024 20:30:08:432,453,0,1,2,59412,96363,62198,-79,-553,831
05.10.2024 20:30:08:436,454,0,1,2,59403,96359,62201,-70,-552,829
05.10.2024 20:30:08:439,455,0,1,2,59396,96354,62200,-69,-554,825
05.10.2024 20:30:08:443,456,0,1,2,59378,96349,62197,-71,-546,826
05.10.2024 20:30:08:447,457,0,1,2,59371,96350,62196,-68,-547,830
05.10.2024 20:30:08:451,458,0,1,2,59346,96339,62194,-74,-541,839
05.10.2024 20:30:08:455,459,0,1,2,59341,96338,62189,-66,-543,834
05.10.2024 20:30:08:459,460,0,1,2,59322,96335,62188,-75,-545,837
05.10.2024 20:30:08:463,461,0,1,2,59311,96330,62186,-68,-545,837
05.10.2024 20:30:08:467,462,0,1,2,59296,96326,62185,-67,-546,835
05.10.2024 20:30:08:471,463,0,1,2,59280,96316,62184,-65,-548,836
05.10.2024 20:30:08:475,464,0,1,2,59271,96315,62179,-73,-546,835
05.10.2024 20:30:08:478,465,0,1,2,59250,96308,62179,-72,-540,834
05.10.2024 20:30:08:482,466,0,1,2,59237,96304,62175,-65,-542,838
05.10.2024 20:30:08:486,467,0,1,2,59224,96301,62175,-66,-548,839
05.10.2024 20:30:08:490,468,0,1,2,59205,96290,62170,-65,-542,832
05.10.2024 20:30:08:494,469,0,1,2,59191,96290,62170,-63,-546,827
05.10.2024 20:30:08:498,470,0,1,2,59182,96286,62170,-75,-540,829
05.10.2024 20:30:08:502,471,0,1,2,59169,96278,62167,-72,-535,830
05.10.2024 20:30:08:506,472,0,1,2,59152,96280,62165,-75,-537,826
05.10.2024 20:30:08:510,473,0,1,2,59149,96270,62163,-68,-541,823
05.10.2024 20:30:08:514,474,0,1,2,59139,96266,62156,-66,-541,827
05.10.2024 20:30:08:517,475,0,1,2,59128,96260,62153,-65,-545,829
05.10.2024 20:30:08:521,476,0,1,2,59120,96253,62153,-67,-554,830
05.10.2024 20:30:08:525,477,0,1,2,59105,96251,62149,-70,-548,830
05.10.2024 20:30:08:529,478,0,1,2,59108,96245,62147,-68,-549,835
05.10.2024 20:30:08:533,479,0,1,2,59100,96243,62146,-67,-551,832
05.10.2024 20:30:08:537,480,0,1,2,59086,96239,62144,-73,-551,834
05.10.2024 20:30:08:541,481,0,1,2,59087,96232,62143,-69,-549,829
05.10.2024 20:30:08:545,482,0,1,2,59080,96236,62141,-67,-547,833
05.10.2024 20:30:08:549,483,0,1,2,59084,96227,62137,-67,-548,831
05.10.2024 20:30:08:553,484,0,1,2,59075,96226,62140,-64,-545,832
05.10.2024 20:30:08:557,485,0,1,2,59068,96219,62133,-72,-548,836
05.10.2024 20:30:08:560,486,0,1,2,59068,96223,62130,-70,-549,827
05.10.2024 20:30:08:564,487,0,1,2,59064,96218,62130,-69,-547,832
05.10.2024 20:30:08:568,488,0,1,2,59055,96208,62127,-68,-548,831
05.10.2024 20:30:08:572,489,0,1,2,59056,96208,62124,-68,-543,835
05.10.2024 20:30:08:576,490,0,1,2,59057,96207,62128,-66,-546,829
05.10.2024 20:30:08:580,491,0,1,2,59058,96205,62122,-69,-549,831
05.10.2024 20:30:08:584,492,0,1,2,59053,96199,62122,-71,-541,825
05.10.2024 20:30:08:588,493,0,1,2,59056,96191,62119,-66,-547,829
05.10.2024 20:30:08:592,494,0,1,2,59054,96193,62115,-67,-550,828
05.10.2024 20:30:08:596,495,0,1,2,59050,96186,62116,-73,-551,834
05.10.2024 20:30:08:599,496,0,1,2,59052,96191,62112,-76,-546,838
05.10.2024 20:30:08:603,497,0,1,2,59048,96185,62114,-71,-551,838
05.10.2024 20:30:08:607,498,0,1,2,59052,96189,62111,-73,-543,833
05.10.2024 20:30:08:611,499,0,1,2,59049,96180,62109,-68,-547,837
05.10.2024 20:30:08:615,500,0,1,2,59046,96180,62107,-77,-552,831
05.10.2024 20:30:08:619,501,0,1,2,59050,96180,62109,-71,-546,831
05.10.2024 20:30:08:623,502,0,1,2,59053,96175,62107,-71,-541,833
05.10.2024 20:30:08:627,503,0,1,2,59049,96171,62102,-80,-547,835
05.10.2024 20:30:08:631,504,0,1,2,59050,96175,62102,-71,-546,833
05.10.2024 20:30:08:635,505,0,1,2,59049,96171,62104,-75,-547,828
05.10.2024 20:30:08:638,506,0,1,2,59051,96169,62095,-71,-550,832
05.10.2024 20:30:08:642,507,0,1,2,59044,96165,62096,-65,-546,831
05.10.2024 20:30:08:646,508,0,1,2,59051,96165,62101,-68,-543,833
05.10.2024 20:30:08:650,509,0,1,2,59050,96167,62096,-70,-545,824
05.10.2024 20:30:08:654,510,0,1,2,59055,96161,62098,-66,-547,831
05.10.2024 20:30:08:658,511,0,1,2,59048,96162,62096,-75,-545,832
05.10.2024 20:30:08:662,512,0,1,2,59045,96156,62094,-67,-547,835
05.10.2024 20:30:08:666,513,0,1,2,59048,96160,62093,-71,-548,832
05.10.2024 20:30:08:670,514,0,1,2,59047,96153,62090,-62,-549,832
05.10.2024 20:30:08:674,515,0,1,2,59046,96150,62089,-68,-551,828
05.10.2024 20:30:08:677,516,0,1,2,59046,96146,62084,-70,-545,833
05.10.2024 20:30:08:681,517,0,1,2,59045,96151,62085,-68,-546,838
05.10.2024 20:30:08:685,518,0,1,2,59038,96148,62084,-66,-547,830
05.10.2024 20:30:08:689,519,0,1,2,59039,96143,62083,-71,-548,837
05.10.2024 20:30:08:693,520,0,1,2,59031,96139,62086,-75,-547,834
05.10.2024 20:30:08:697,521,0,1,2,59033,96139,62079,-70,-545,835
05.10.2024 20:30:08:701,522,0,1,2,59030,96130,62082,-71,-550,833
05.10.2024 20:30:08:705,523,0,1,2,59028,96132,62078,-72,-550,835
05.10.2024 20:30:08:709,524,0,1,2,59031,96127,62077,-64,-548,836
05.10.2024 20:30:08:713,525,0,1,2,59024,96125,62076,-72,-549,837
05.10.2024 20:30:08:717,526,0,1,2,59028,96119,62073,-67,-547,833
05.10.2024 20:30:08:720,527,0,1,2,59016,96117,62074,-62,-546,836
05.10.2024 20:30:08:724,528,0,1,2,59019,96108,62072,-62,-550,834
05.10.2024 20:30:08:728,529,0,1,2,59010,96112,62069,-69,-542,831
05.10.2024 20:30:08:732,530,0,1,2,59009,96107,62070,-66,-548,831
05.10.2024 20:30:08:736,531,0,1,2,59004,96100,62066,-70,-551,833
05.10.2024 20:30:08:740,532,0,1,2,58992,96096,62063,-70,-548,827
05.10.2024 20:30:08:744,533,0,1,2,59000,96099,62057,-65,-547,825
05.10.2024 20:30:08:748,534,0,1,2,58984,96090,62058,-72,-553,829
05.10.2024 20:30:08:752,535,0,1,2,58988,96090,62054,-70,-552,834
05.10.2024 20:30:08:756,536,0,1,2,58977,96080,62051,-68,-553,832
05.10.2024 20:30:08:759,537,0,1,2,58977,96078,62047,-69,-553,829
05.10.2024 20:30:08:763,538,0,1,2,58974,96080,62046,-70,-550,830
05.10.2024 20:30:08:767,539,0,1,2,58977,96078,62047,-67,-548,828
05.10.2024 20:30:08:771,540,0,1,2,58971,96069,62046,-69,-548,830
05.10.2024 20:30:08:775,541,0,1,2,58964,96065,62046,-72,-547,827
05.10.2024 20:30:08:779,542,0,1,2,58952,96066,62043,-68,-550,832
05.10.2024 20:30:08:783,543,0,1,2,58949,96058,62040,-72,-548,836
05.10.2024 20:30:08:787,544,0,1,2,58945,96058,62044,-69,-550,831
05.10.2024 20:30:08:791,545,0,1,2,58947,96057,62037,-69,-551,824
05.10.2024 20:30:08:795,546,0,1,2,58948,96051,62038,-69,-551,824
05.10.2024 20:30:08:798,547,0,1,2,58946,96050,62034,-67,-556,836
05.10.2024 20:30:08:802,548,0,1,2,58947,96049,62033,-69,-547,830
05.10.2024 20:30:08:806,549,0,1,2,58941,96051,62037,-71,-553,828
05.10.2024 20:30:08:810,550,0,1,2,58944,96044,62034,-68,-548,833
05.10.2024 20:30:08:814,551,0,1,2,58939,96039,62029,-63,-552,831
05.10.2024 20:30:08:818,552,0,1,2,58934,96043,62028,-66,-554,828
05.10.2024 20:30:08:822,553,0,1,2,58937,96039,62028,-73,-551,829
05.10.2024 20:30:08:826,554,0,1,2,58943,96038,62025,-62,-555,826
05.10.2024 20:30:08:830,555,0,1,2,58934,96034,62027,-65,-549,830
05.10.2024 20:30:08:834,556,0,1,2,58934,96032,62026,-69,-550,829
05.10.2024 20:30:08:838,557,0,1,2,58933,96032,62025,-65,-550,833
05.10.2024 20:30:08:841,558,0,1,2,58934,96028,62021,-71,-549,831
05.10.2024 20:30:08:845,559,0,1,2,58929,96029,62017,-69,-550,835
05.10.2024 20:30:08:849,560,0,1,2,58932,96025,62018,-67,-550,826
05.10.2024 20:30:08:853,561,0,1,2,58938,96017,62014,-71,-555,821
05.10.2024 20:30:08:857,562,0,1,2,58929,96019,62019,-68,-549,829
05.10.2024 20:30:08:861,563,0,1,2,58935,96018,62014,-69,-547,832
05.10.2024 20:30:08:865,564,0,1,2,58932,96018,62012,-67,-549,831
05.10.2024 20:30:08:869,565,0,1,2,58925,96021,62013,-70,-550,831
05.10.2024 20:30:08:873,566,0,1,2,58938,96014,62010,-71,-554,829
05.10.2024 20:30:08:877,567,0,1,2,58931,96018,62009,-71,-550,834
05.10.2024 20:30:08:880,568,0,1,2,58935,96015,62008,-64,-551,833
05.10.2024 20:30:08:884,569,0,1,2,58931,96010,62010,-71,-544,834
05.10.2024 20:30:08:888,570,0,1,2,58929,96017,62007,-64,-550,836
05.10.2024 20:30:08:892,571,0,1,2,58933,96012,62005,-64,-550,836
05.10.2024 20:30:08:896,572,0,1,2,58935,96010,62004,-68,-549,825
05.10.2024 20:30:08:900,573,0,1,2,58935,96005,62005,-68,-549,832
05.10.2024 20:30:08:904,574,0,1,2,58935,96005,62003,-71,-552,833
05.10.2024 20:30:08:908,575,0,1,2,58933,96008,61999,-75,-548,832
05.10.2024 20:30:08:912,576,0,1,2,58938,96002,61996,-70,-545,828
05.10.2024 20:30:08:916,577,0,1,2,58937,96005,62002,-69,-549,832
05.10.2024 20:30:08:919,578,0,1,2,58938,96004,61996,-67,-550,832
05.10.2024 20:30:08:923,579,0,1,2,58941,96004,61999,-66,-552,834
05.10.2024 20:30:08:927,580,0,1,2,58929,95999,61997,-72,-549,828
05.10.2024 20:30:08:931,581,0,1,2,58938,95995,61994,-68,-553,827
05.10.2024 20:30:08:935,582,0,1,2,58937,95999,61995,-72,-547,829
05.10.2024 20:30:08:939,583,0,1,2,58936,95998,61995,-72,-556,835
05.10.2024 20:30:08:943,584,0,1,2,58944,95999,61994,-65,-553,835
05.10.2024 20:30:08:947,585,0,1,2,58942,95997,61994,-65,-545,831
05.10.2024 20:30:08:951,586,0,1,2,58943,95999,61995,-71,-545,836
05.10.2024 20:30:08:955,587,0,1,2,58943,95997,61993,-70,-548,833
05.10.2024 20:30:08:959,588,0,1,2,58937,95995,61993,-73,-542,832
05.10.2024 20:30:08:962,589,0,1,2,58945,95991,61987,-75,-546,831
05.10.2024 20:30:08:966,590,0,1,2,58942,95992,61986,-68,-544,831
05.10.2024 20:30:08:970,591,0,1,2,58949,95985,61988,-65,-541,835
05.10.2024 20:30:08:974,592,0,1,2,58948,95986,61986,-68,-540,829
05.10.2024 20:30:08:978,593,0,1,2,58947,95986,61981,-70,-550,827
05.10.2024 20:30:08:982,594,0,1,2,58947,95989,61981,-64,-553,825
05.10.2024 20:30:08:986,595,0,1,2,58949,95986,61982,-65,-549,830
05.10.2024 20:30:08:990,596,0,1,2,58957,95982,61981,-65,-549,830
05.10.2024 20:30:08:994,597,0,1,2,58955,95985,61978,-67,-555,833
05.10.2024 20:30:08:998,598,0,1,2,58958,95982,61977,-62,-553,831
05.10.2024 20:30:09:1,599,0,1,2,58957,95983,61979,-59,-555,833
05.10.2024 20:30:09:5,600,0,1,2,58956,95983,61978,-66,-552,828
05.10.2024 20:30:09:9,601,0,1,2,58955,95980,61979,-66,-555,830
05.10.2024 20:30:09:13,602,0,1,2,58959,95984,61978,-71,-553,827
05.10.2024 20:30:09:17,603,0,1,2,58956,95982,61976,-72,-552,835
05.10.2024 20:30:09:21,604,0,1,2,58954,95987,61975,-65,-561,822
05.10.2024 20:30:09:25,605,0,1,2,58951,95987,61976,-68,-562,819
05.10.2024 20:30:09:29,606,0,1,2,58948,95985,61977,-65,-558,826
05.10.2024 20:30:09:33,607,0,1,2,58952,95990,61980,-65,-555,827
05.10.2024 20:30:09:37,608,0,1,2,58951,95991,61980,-65,-550,826
05.10.2024 20:30:09:40,609,0,1,2,58945,95990,61978,-69,-548,826
05.10.2024 20:30:09:44,610,0,1,2,58937,95985,61976,-72,-548,833
05.10.2024 20:30:09:48,611,0,1,2,58935,95990,61976,-72,-551,830
05.10.2024 20:30:09:52,612,0,1,2,58931,95986,61980,-74,-552,829
05.10.2024 20:30:09:56,613,0,1,2,58925,95985,61979,-67,-549,828
05.10.2024 20:30:09:60,614,0,1,2,58912,95983,61976,-69,-548,830
05.10.2024 20:30:09:64,615,0,1,2,58907,95987,61980,-67,-551,829
05.10.2024 20:30:09:68,616,0,1,2,58890,95984,61978,-71,-547,839
05.10.2024 20:30:09:72,617,0,1,2,58882,95975,61974,-71,-549,829
05.10.2024 20:30:09:76,618,0,1,2,58872,95977,61977,-69,-539,825
05.10.2024 20:30:09:80,619,0,1,2,58862,95975,61976,-70,-548,831
05.10.2024 20:30:09:83,620,0,1,2,58851,95978,61973,-69,-542,832
05.10.2024 20:30:09:87,621,0,1,2,58831,95968,61976,-69,-542,832
05.10.2024 20:30:09:91,622,0,1,2,58824,95963,61969,-73,-546,833
05.10.2024 20:30:09:95,623,0,1,2,58808,95969,61974,-68,-547,829
05.10.2024 20:30:09:99,624,0,1,2,58797,95964,61971,-73,-547,832
05.10.2024 20:30:09:103,625,0,1,2,58783,95959,61972,-67,-552,826
05.10.2024 20:30:09:107,626,0,1,2,58769,95957,61968,-64,-550,830
05.10.2024 20:30:09:111,627,0,1,2,58756,95958,61967,-58,-552,831
05.10.2024 20:30:09:115,628,0,1,2,58750,95955,61964,-68,-550,837
05.10.2024 20:30:09:119,629,0,1,2,58732,95958,61967,-63,-549,828
05.10.2024 20:30:09:122,630,0,1,2,58726,95957,61969,-64,-547,831
05.10.2024 20:30:09:126,631,0,1,2,58717,95960,61968,-66,-552,832
05.10.2024 20:30:09:130,632,0,1,2,58708,95952,61973,-64,-550,832
05.10.2024 20:30:09:134,633,0,1,2,58696,95962,61974,-63,-553,830
05.10.2024 20:30:09:138,634,0,1,2,58690,95962,61970,-66,-549,833
05.10.2024 20:30:09:142,635,0,1,2,58681,95962,61971,-62,-553,828
05.10.2024 20:30:09:146,636,0,1,2,58675,95964,61973,-65,-553,828
05.10.2024 20:30:09:150,637,0,1,2,58671,95963,61974,-65,-548,836
05.10.2024 20:30:09:154,638,0,1,2,58661,95968,61973,-64,-547,830
05.10.2024 20:30:09:158,639,0,1,2,58668,95969,61975,-66,-546,834
05.10.2024 20:30:09:161,640,0,1,2,58659,95970,61980,-70,-542,834
05.10.2024 20:30:09:165,641,0,1,2,58654,95969,61984,-68,-544,836
05.10.2024 20:30:09:169,642,0,1,2,58654,95976,61981,-66,-540,832
05.10.2024 20:30:09:173,643,0,1,2,58654,95978,61983,-70,-539,834
05.10.2024 20:30:09:177,644,0,1,2,58652,95977,61985,-69,-544,836
05.10.2024 20:30:09:181,645,0,1,2,58647,95979,61982,-63,-541,838
05.10.2024 20:30:09:185,646,0,1,2,58654,95983,61987,-63,-541,838
05.10.2024 20:30:09:189,647,0,1,2,58652,95987,61985,-67,-535,841
05.10.2024 20:30:09:193,648,0,1,2,58650,95983,61986,-71,-539,836
05.10.2024 20:30:09:197,649,0,1,2,58655,95983,61987,-69,-533,833
05.10.2024 20:30:09:201,650,0,1,2,58649,95985,61988,-67,-538,839
05.10.2024 20:30:09:204,651,0,1,2,58655,95991,61988,-74,-539,837
05.10.2024 20:30:09:208,652,0,1,2,58657,95992,61989,-66,-541,832
05.10.2024 20:30:09:212,653,0,1,2,58650,95997,61987,-67,-540,833
05.10.2024 20:30:09:216,654,0,1,2,58653,95996,61989,-67,-539,830
05.10.2024 20:30:09:220,655,0,1,2,58658,95991,61988,-65,-539,836
05.10.2024 20:30:09:224,656,0,1,2,58654,95995,61988,-73,-540,838
05.10.2024 20:30:09:228,657,0,1,2,58660,95997,61986,-67,-537,840
05.10.2024 20:30:09:232,658,0,1,2,58665,95992,61985,-70,-535,835
05.10.2024 20:30:09:236,659,0,1,2,58663,95996,61985,-69,-536,844
05.10.2024 20:30:09:240,660,0,1,2,58659,95996,61991,-68,-539,835
05.10.2024 20:30:09:243,661,0,1,2,58665,95997,61987,-68,-536,842
05.10.2024 20:30:09:247,662,0,1,2,58672,95998,61984,-66,-544,841
05.10.2024 20:30:09:251,663,0,1,2,58673,95997,61987,-65,-540,834
05.10.2024 20:30:09:255,664,0,1,2,58668,96000,61986,-65,-542,840
05.10.2024 20:30:09:259,665,0,1,2,58679,96003,61984,-65,-540,842
05.10.2024 20:30:09:263,666,0,1,2,58671,96007,61985,-62,-542,837
05.10.2024 20:30:09:267,667,0,1,2,58673,96000,61987,-71,-539,835
05.10.2024 20:30:09:271,668,0,1,2,58672,96005,61983,-64,-542,839
05.10.2024 20:30:09:275,669,0,1,2,58675,96003,61983,-66,-534,843
05.10.2024 20:30:09:279,670,0,1,2,58673,95995,61982,-65,-539,837
05.10.2024 20:30:09:282,671,0,1,2,58674,96003,61983,-65,-539,837
05.10.2024 20:30:09:286,672,0,1,2,58683,96006,61979,-68,-538,839
05.10.2024 20:30:09:290,673,0,1,2,58680,95999,61982,-62,-541,837
05.10.2024 20:30:09:294,674,0,1,2,58679,96001,61979,-66,-544,841
05.10.2024 20:30:09:298,675,0,1,2,58683,95997,61982,-69,-541,840
05.10.2024 20:30:09:302,676,0,1,2,58681,96002,61981,-64,-542,842
05.10.2024 20:30:09:306,677,0,1,2,58686,96001,61980,-63,-534,842
05.10.2024 20:30:09:310,678,0,1,2,58681,95999,61977,-60,-536,845
05.10.2024 20:30:09:314,679,0,1,2,58679,96005,61978,-69,-531,840
05.10.2024 20:30:09:318,680,0,1,2,58679,96002,61980,-65,-531,840
05.10.2024 20:30:09:322,681,0,1,2,58685,96000,61977,-70,-528,842
05.10.2024 20:30:09:325,682,0,1,2,58683,95999,61977,-74,-529,836
05.10.2024 20:30:09:329,683,0,1,2,58680,95999,61979,-66,-528,847
05.10.2024 20:30:09:333,684,0,1,2,58684,95999,61979,-76,-526,836
05.10.2024 20:30:09:337,685,0,1,2,58684,96002,61982,-64,-527,845
05.10.2024 20:30:09:341,686,0,1,2,58680,96005,61983,-66,-519,843
05.10.2024 20:30:09:345,687,0,1,2,58678,96004,61983,-66,-528,841
05.10.2024 20:30:09:349,688,0,1,2,58677,96002,61982,-64,-523,846
05.10.2024 20:30:09:353,689,0,1,2,58681,96002,61981,-67,-528,847
05.10.2024 20:30:09:357,690,0,1,2,58681,95997,61980,-63,-524,849
05.10.2024 20:30:09:361,691,0,1,2,58683,96002,61980,-65,-531,846
05.10.2024 20:30:09:364,692,0,1,2,58676,96000,61981,-64,-527,846
05.10.2024 20:30:09:368,693,0,1,2,58678,95999,61982,-64,-528,848
05.10.2024 20:30:09:372,694,0,1,2,58672,96003,61981,-60,-524,846
05.10.2024 20:30:09:376,695,0,1,2,58672,95995,61982,-58,-528,839
05.10.2024 20:30:09:380,696,0,1,2,58675,95994,61977,-58,-528,839
05.10.2024 20:30:09:384,697,0,1,2,58670,95996,61974,-63,-526,843
05.10.2024 20:30:09:388,698,0,1,2,58670,95989,61971,-63,-528,842
05.10.2024 20:30:09:392,699,0,1,2,58675,95994,61973,-63,-531,844
05.10.2024 20:30:09:396,700,0,1,2,58674,95989,61976,-64,-524,843
05.10.2024 20:30:09:400,701,0,1,2,58669,95985,61975,-57,-525,838
05.10.2024 20:30:09:403,702,0,1,2,58672,95989,61975,-63,-534,848
05.10.2024 20:30:09:407,703,0,1,2,58675,95985,61970,-60,-527,847
05.10.2024 20:30:09:411,704,0,1,2,58669,95986,61973,-59,-529,845
05.10.2024 20:30:09:415,705,0,1,2,58670,95982,61970,-64,-524,841
05.10.2024 20:30:09:419,706,0,1,2,58671,95988,61968,-62,-535,840
05.10.2024 20:30:09:423,707,0,1,2,58680,95985,61969,-62,-526,839
05.10.2024 20:30:09:427,708,0,1,2,58675,95984,61976,-66,-532,842
05.10.2024 20:30:09:431,709,0,1,2,58681,95985,61973,-60,-532,843
05.10.2024 20:30:09:435,710,0,1,2,58679,95989,61972,-66,-536,840
05.10.2024 20:30:09:439,711,0,1,2,58685,95985,61974,-64,-531,840
05.10.2024 20:30:09:443,712,0,1,2,58685,95984,61977,-62,-530,845
05.10.2024 20:30:09:446,713,0,1,2,58688,95990,61976,-69,-528,845
05.10.2024 20:30:09:450,714,0,1,2,58690,95988,61977,-64,-529,837
05.10.2024 20:30:09:454,715,0,1,2,58696,95987,61980,-64,-526,841
05.10.2024 20:30:09:458,716,0,1,2,58695,95993,61981,-62,-528,847
05.10.2024 20:30:09:462,717,0,1,2,58700,95993,61982,-64,-530,844
05.10.2024 20:30:09:466,718,0,1,2,58705,95995,61984,-64,-527,846
05.10.2024 20:30:09:470,719,0,1,2,58708,95998,61984,-64,-530,841
05.10.2024 20:30:09:474,720,0,1,2,58710,95996,61984,-71,-528,847
05.10.2024 20:30:09:478,721,0,1,2,58716,96002,61984,-65,-527,852
05.10.2024 20:30:09:482,722,0,1,2,58717,95998,61983,-68,-531,846
05.10.2024 20:30:09:485,723,0,1,2,58720,95999,61987,-67,-528,846
05.10.2024 20:30:09:489,724,0,1,2,58724,95998,61988,-64,-533,850
05.10.2024 20:30:09:493,725,0,1,2,58725,95995,61986,-70,-537,846
05.10.2024 20:30:09:497,726,0,1,2,58736,96002,61985,-66,-533,842
05.10.2024 20:30:09:501,727,0,1,2,58740,95996,61988,-67,-532,841
05.10.2024 20:30:09:505,728,0,1,2,58738,96002,61988,-63,-536,844
05.10.2024 20:30:09:509,729,0,1,2,58749,95997,61987,-63,-536,838
05.10.2024 20:30:09:513,730,0,1,2,58744,95995,61987,-64,-534,841
05.10.2024 20:30:09:517,731,0,1,2,58757,95998,61991,-61,-532,839
05.10.2024 20:30:09:521,732,0,1,2,58759,95997,61987,-64,-535,843
05.10.2024 20:30:09:524,733,0,1,2,58759,96001,61988,-68,-533,845
05.10.2024 20:30:09:528,734,0,1,2,58758,95994,61993,-68,-536,845
05.10.2024 20:30:09:532,735,0,1,2,58763,96008,61994,-64,-533,836
05.10.2024 20:30:09:536,736,0,1,2,58766,95999,61990,-61,-532,842
05.10.2024 20:30:09:540,737,0,1,2,58772,95999,61996,-62,-536,838
05.10.2024 20:30:09:544,738,0,1,2,58771,96000,61990,-64,-532,842
05.10.2024 20:30:09:548,739,0,1,2,58771,96001,61992,-65,-531,842
05.10.2024 20:30:09:552,740,0,1,2,58780,96000,61990,-55,-530,838
05.10.2024 20:30:09:556,741,0,1,2,58785,95998,61993,-63,-528,841
05.10.2024 20:30:09:560,742,0,1,2,58782,95996,61995,-64,-530,846
05.10.2024 20:30:09:564,743,0,1,2,58789,96000,61993,-64,-528,838
05.10.2024 20:30:09:567,744,0,1,2,58790,96004,61992,-63,-536,843
05.10.2024 20:30:09:571,745,0,1,2,58789,95998,61992,-64,-531,842
05.10.2024 20:30:09:575,746,0,1,2,58798,96004,61989,-62,-529,843
05.10.2024 20:30:09:579,747,0,1,2,58804,95999,61992,-68,-537,843
05.10.2024 20:30:09:583,748,0,1,2,58800,96002,61988,-64,-533,841
05.10.2024 20:30:09:587,749,0,1,2,58802,95998,61992,-63,-533,844
05.10.2024 20:30:09:591,750,0,1,2,58812,95997,61992,-63,-533,839
05.10.2024 20:30:09:595,751,0,1,2,58812,96002,61992,-69,-533,846
05.10.2024 20:30:09:599,752,0,1,2,58815,95997,61995,-67,-534,840
05.10.2024 20:30:09:603,753,0,1,2,58820,95997,61992,-65,-534,842
05.10.2024 20:30:09:606,754,0,1,2,58813,95998,61989,-65,-538,839
05.10.2024 20:30:09:610,755,0,1,2,58816,96000,61993,-64,-537,838
05.10.2024 20:30:09:614,756,0,1,2,58816,95995,61989,-68,-535,841
05.10.2024 20:30:09:618,757,0,1,2,58819,95991,61991,-62,-545,841
05.10.2024 20:30:09:622,758,0,1,2,58815,95994,61991,-66,-539,836
05.10.2024 20:30:09:626,759,0,1,2,58809,95989,61992,-67,-541,839
05.10.2024 20:30:09:630,760,0,1,2,58811,95991,61994,-69,-538,839
05.10.2024 20:30:09:634,761,0,1,2,58802,95984,61991,-69,-537,839
05.10.2024 20:30:09:638,762,0,1,2,58801,95985,61991,-71,-534,839
05.10.2024 20:30:09:642,763,0,1,2,58787,95984,61990,-67,-537,840
05.10.2024 20:30:09:645,764,0,1,2,58788,95979,61992,-68,-534,842
05.10.2024 20:30:09:649,765,0,1,2,58777,95976,61990,-67,-535,836
05.10.2024 20:30:09:653,766,0,1,2,58769,95974,61990,-66,-532,841
05.10.2024 20:30:09:657,767,0,1,2,58753,95968,61990,-66,-533,839
05.10.2024 20:30:09:661,768,0,1,2,58742,95968,61987,-67,-532,834
05.10.2024 20:30:09:665,769,0,1,2,58727,95961,61984,-59,-529,834
05.10.2024 20:30:09:669,770,0,1,2,58717,95958,61984,-61,-531,839
05.10.2024 20:30:09:673,771,0,1,2,58701,95956,61984,-65,-534,840
05.10.2024 20:30:09:677,772,0,1,2,58693,95950,61985,-3,-530,845
05.10.2024 20:30:09:681,773,0,1,2,58678,95949,61984,-65,-534,838
05.10.2024 20:30:09:684,774,0,1,2,58665,95944,61983,-61,-534,847
05.10.2024 20:30:09:688,775,0,1,2,58654,95937,61983,-61,-534,837
05.10.2024 20:30:09:692,776,0,1,2,58644,95933,61975,-59,-536,843
05.10.2024 20:30:09:696,777,0,1,2,58635,95925,61976,-61,-536,845
05.10.2024 20:30:09:700,778,0,1,2,58630,95923,61976,-61,-533,840
05.10.2024 20:30:09:704,779,0,1,2,58620,95919,61970,-62,-536,837
05.10.2024 20:30:09:708,780,0,1,2,58613,95923,61968,-65,-533,842
05.10.2024 20:30:09:712,781,0,1,2,58603,95913,61968,-66,-532,837
05.10.2024 20:30:09:716,782,0,1,2,58597,95903,61968,-61,-531,841
05.10.2024 20:30:09:720,783,0,1,2,58593,95906,61973,-60,-535,843
05.10.2024 20:30:09:724,784,0,1,2,58580,95904,61967,-63,-534,839
05.10.2024 20:30:09:727,785,0,1,2,58577,95898,61968,-64,-533,840
05.10.2024 20:30:09:731,786,0,1,2,58572,95898,61965,-65,-535,837
05.10.2024 20:30:09:735,787,0,1,2,58575,95890,61962,-60,-533,833
05.10.2024 20:30:09:739,788,0,1,2,58575,95890,61962,-63,-534,833
05.10.2024 20:30:09:743,789,0,1,2,58568,95887,61961,-65,-528,847
05.10.2024 20:30:09:747,790,0,1,2,58559,95889,61963,-67,-530,845
05.10.2024 20:30:09:751,791,0,1,2,58564,95873,61958,-63,-528,837
05.10.2024 20:30:09:755,792,0,1,2,58563,95873,61958,-66,-536,841
05.10.2024 20:30:09:759,793,0,1,2,58560,95864,61955,-60,-542,841
05.10.2024 20:30:09:763,794,0,1,2,58558,95864,61952,-64,-537,843
05.10.2024 20:30:09:766,795,0,1,2,58563,95865,61952,-64,-535,843
05.10.2024 20:30:09:770,796,0,1,2,58558,95863,61952,-60,-535,843
05.10.2024 20:30:09:774,797,0,1,2,58558,95861,61950,-59,-531,838
05.10.2024 20:30:09:778,798,0,1,2,58556,95863,61952,-62,-542,845
05.10.2024 20:30:09:782,799,0,1,2,58550,95854,61952,-60,-541,833
05.10.2024 20:30:09:786,800,0,1,2,58561,95854,61950,-61,-542,835
05.10.2024 20:30:09:790,801,0,1,2,58563,95853,61946,-65,-539,843
05.10.2024 20:30:09:794,802,0,1,2,58562,95853,61947,-63,-539,840
05.10.2024 20:30:09:798,803,0,1,2,58558,95856,61944,-64,-536,839
05.10.2024 20:30:09:802,804,0,1,2,58560,95846,61945,-66,-541,833
05.10.2024 20:30:09:805,805,0,1,2,58564,95847,61949,-67,-545,839
05.10.2024 20:30:09:809,806,0,1,2,58567,95847,61944,-60,-540,837
05.10.2024 20:30:09:813,807,0,1,2,58571,95843,61942,-61,-537,834
05.10.2024 20:30:09:817,808,0,1,2,58569,95843,61942,-65,-546,834
05.10.2024 20:30:09:821,809,0,1,2,58572,95842,61944,-61,-541,836
05.10.2024 20:30:09:825,810,0,1,2,58578,95843,61944,-64,-543,837
05.10.2024 20:30:09:829,811,0,1,2,58583,95839,61940,-62,-540,836
05.10.2024 20:30:09:833,812,0,1,2,58577,95841,61941,-65,-539,840
05.10.2024 20:30:09:837,813,0,1,2,58578,95842,61946,-65,-543,841
05.10.2024 20:30:09:841,814,0,1,2,58581,95836,61942,-60,-538,839
05.10.2024 20:30:09:845,815,0,1,2,58588,95840,61947,-62,-539,842
05.10.2024 20:30:09:848,816,0,1,2,58584,95840,61943,-64,-541,839
05.10.2024 20:30:09:852,817,0,1,2,58588,95834,61944,-63,-539,837
05.10.2024 20:30:09:856,818,0,1,2,58585,95838,61945,-64,-540,840
05.10.2024 20:30:09:860,819,0,1,2,58586,95836,61944,-64,-535,837
05.10.2024 20:30:09:864,820,0,1,2,58586,95841,61944,-64,-526,837
05.10.2024 20:30:09:868,821,0,1,2,58584,95840,61945,-69,-534,843
05.10.2024 20:30:09:872,822,0,1,2,58593,95837,61948,-64,-532,839
05.10.2024 20:30:09:876,823,0,1,2,58585,95835,61946,-61,-533,838
05.10.2024 20:30:09:880,824,0,1,2,58590,95833,61949,-64,-535,838
05.10.2024 20:30:09:884,825,0,1,2,58585,95829,61944,-64,-538,841
05.10.2024 20:30:09:887,826,0,1,2,58589,95831,61946,-64,-540,837
05.10.2024 20:30:09:891,827,0,1,2,58581,95828,61943,-61,-538,839
05.10.2024 20:30:09:895,828,0,1,2,58585,95826,61946,-2,-541,834
05.10.2024 20:30:09:899,829,0,1,2,58581,95825,61941,-53,-543,838
05.10.2024 20:30:09:903,830,0,1,2,58580,95824,61940,-59,-544,843
05.10.2024 20:30:09:907,831,0,1,2,58580,95819,61940,-61,-542,838
05.10.2024 20:30:09:911,832,0,1,2,58580,95816,61938,-65,-536,841
05.10.2024 20:30:09:915,833,0,1,2,58569,95818,61941,-61,-541,833
05.10.2024 20:30:09:919,834,0,1,2,58574,95811,61942,-61,-538,832
05.10.2024 20:30:09:923,835,0,1,2,58569,95810,61936,-63,-537,833
05.10.2024 20:30:09:926,836,0,1,2,58568,95809,61938,-63,-538,833
05.10.2024 20:30:09:930,837,0,1,2,58563,95803,61938,-65,-533,837
05.10.2024 20:30:09:934,838,0,1,2,58552,95797,61932,-62,-536,841
05.10.2024 20:30:09:938,839,0,1,2,58552,95800,61938,-63,-538,843
05.10.2024 20:30:09:942,840,0,1,2,58552,95796,61930,-63,-537,842
05.10.2024 20:30:09:946,841,0,1,2,58548,95791,61933,-62,-542,837
05.10.2024 20:30:09:950,842,0,1,2,58547,95792,61930,-60,-538,839
05.10.2024 20:30:09:954,843,0,1,2,58538,95785,61930,-64,-536,841
05.10.2024 20:30:09:958,844,0,1,2,58540,95781,61926,-60,-543,843
05.10.2024 20:30:09:962,845,0,1,2,58536,95775,61922,-60,-539,833
05.10.2024 20:30:09:966,846,0,1,2,58539,95778,61929,-58,-542,834
05.10.2024 20:30:09:969,847,0,1,2,58529,95778,61922,-63,-540,838
05.10.2024 20:30:09:973,848,0,1,2,58529,95770,61926,-61,-539,836
05.10.2024 20:30:09:977,849,0,1,2,58520,95765,61927,-64,-539,834
05.10.2024 20:30:09:981,850,0,1,2,58524,95772,61919,-63,-539,833
05.10.2024 20:30:09:985,851,0,1,2,58517,95768,61921,-63,-535,835
05.10.2024 20:30:09:989,852,0,1,2,58512,95764,61920,-60,-539,836
05.10.2024 20:30:09:993,853,0,1,2,58510,95763,61916,-61,-537,837
05.10.2024 20:30:09:997,854,0,1,2,58513,95760,61921,-70,-543,844
05.10.2024 20:30:10:1,855,0,1,2,58508,95756,61918,-69,-539,834
05.10.2024 20:30:10:5,856,0,1,2,58514,95754,61915,-65,-546,839
05.10.2024 20:30:10:8,857,0,1,2,58512,95752,61921,-63,-546,839
05.10.2024 20:30:10:12,858,0,1,2,58512,95752,61913,-63,-545,835
05.10.2024 20:30:10:16,859,0,1,2,58510,95752,61916,-62,-550,840
05.10.2024 20:30:10:20,860,0,1,2,58511,95751,61919,-62,-540,842
05.10.2024 20:30:10:24,861,0,1,2,58513,95743,61915,-67,-540,839
05.10.2024 20:30:10:28,862,0,1,2,58511,95746,61915,-61,-539,840
05.10.2024 20:30:10:32,863,0,1,2,58512,95748,61917,-64,-538,840
05.10.2024 20:30:10:36,864,0,1,2,58509,95746,61915,-60,-534,837
05.10.2024 20:30:10:40,865,0,1,2,58512,95744,61919,-60,-539,838
05.10.2024 20:30:10:44,866,0,1,2,58511,95742,61916,-65,-538,841
05.10.2024 20:30:10:47,867,0,1,2,58518,95739,61914,-63,-531,839
05.10.2024 20:30:10:51,868,0,1,2,58517,95740,61913,-64,-534,839
05.10.2024 20:30:10:55,869,0,1,2,58518,95734,61917,-65,-530,839
05.10.2024 20:30:10:59,870,0,1,2,58517,95736,61917,-68,-535,835
05.10.2024 20:30:10:63,871,0,1,2,58523,95730,61914,-63,-534,838
05.10.2024 20:30:10:67,872,0,1,2,58520,95731,61909,-65,-536,838
05.10.2024 20:30:10:71,873,0,1,2,58519,95733,61911,-68,-538,839
05.10.2024 20:30:10:75,874,0,1,2,58515,95727,61910,-71,-535,837
05.10.2024 20:30:10:79,875,0,1,2,58522,95724,61909,-63,-538,846
05.10.2024 20:30:10:83,876,0,1,2,58526,95724,61910,-62,-542,843
05.10.2024 20:30:10:87,877,0,1,2,58526,95722,61909,-64,-534,836
05.10.2024 20:30:10:90,878,0,1,2,58535,95719,61906,-64,-538,834
05.10.2024 20:30:10:94,879,0,1,2,58533,95718,61903,-64,-538,838
05.10.2024 20:30:10:98,880,0,1,2,58540,95711,61903,-63,-536,830
05.10.2024 20:30:10:102,881,0,1,2,58535,95713,61902,-65,-534,837
05.10.2024 20:30:10:106,882,0,1,2,58543,95707,61899,-64,-537,832
05.10.2024 20:30:10:110,883,0,1,2,58540,95709,61903,-59,-536,837
05.10.2024 20:30:10:114,884,0,1,2,58538,95703,61901,-60,-531,831
05.10.2024 20:30:10:118,885,0,1,2,58541,95696,61897,-66,-534,835
05.10.2024 20:30:10:122,886,0,1,2,58545,95692,61895,-61,-536,840
05.10.2024 20:30:10:126,887,0,1,2,58543,95692,61893,-62,-532,840
05.10.2024 20:30:10:129,888,0,1,2,58549,95692,61892,-65,-537,837
05.10.2024 20:30:10:133,889,0,1,2,58554,95690,61891,-59,-536,841
05.10.2024 20:30:10:137,890,0,1,2,58553,95682,61887,-61,-545,840
05.10.2024 20:30:10:141,891,0,1,2,58554,95688,61888,-65,-544,839
05.10.2024 20:30:10:145,892,0,1,2,58561,95677,61886,-60,-542,839
05.10.2024 20:30:10:149,893,0,1,2,58566,95674,61879,-60,-540,836
05.10.2024 20:30:10:153,894,0,1,2,58564,95672,61883,-66,-544,840
05.10.2024 20:30:10:157,895,0,1,2,58570,95670,61882,-62,-545,838
05.10.2024 20:30:10:161,896,0,1,2,58571,95674,61884,-59,-547,841
05.10.2024 20:30:10:165,897,0,1,2,58569,95668,61880,-62,-551,839
05.10.2024 20:30:10:168,898,0,1,2,58567,95660,61880,-67,-545,833
05.10.2024 20:30:10:172,899,0,1,2,58566,95667,61880,-66,-545,836
05.10.2024 20:30:10:176,900,0,1,2,58563,95661,61878,-64,-547,838
05.10.2024 20:30:10:180,901,0,1,2,58558,95656,61880,-71,-547,832
05.10.2024 20:30:10:184,902,0,1,2,58558,95655,61876,-65,-544,839
05.10.2024 20:30:10:188,903,0,1,2,58557,95653,61877,-67,-550,838
05.10.2024 20:30:10:192,904,0,1,2,58545,95648,61876,-62,-541,833
05.10.2024 20:30:10:196,905,0,1,2,58541,95643,61873,-64,-539,836
05.10.2024 20:30:10:200,906,0,1,2,58526,95641,61875,-69,-544,833
05.10.2024 20:30:10:204,907,0,1,2,58513,95635,61875,-64,-534,844
05.10.2024 20:30:10:208,908,0,1,2,58504,95630,61877,-60,-537,836
05.10.2024 20:30:10:211,909,0,1,2,58489,95632,61874,-62,-538,836
05.10.2024 20:30:10:215,910,0,1,2,58469,95625,61875,-65,-533,837
05.10.2024 20:30:10:219,911,0,1,2,58460,95620,61872,-62,-538,843
05.10.2024 20:30:10:223,912,0,1,2,58442,95616,61870,-59,-541,834
05.10.2024 20:30:10:227,913,0,1,2,58424,95610,61872,-59,-540,837
05.10.2024 20:30:10:231,914,0,1,2,58406,95609,61869,-61,-541,833
05.10.2024 20:30:10:235,915,0,1,2,58391,95600,61871,-62,-531,837
05.10.2024 20:30:10:239,916,0,1,2,58380,95595,61871,-58,-535,839
05.10.2024 20:30:10:243,917,0,1,2,58356,95593,61865,-64,-538,831
05.10.2024 20:30:10:247,918,0,1,2,58341,95590,61868,-59,-543,837
05.10.2024 20:30:10:250,919,0,1,2,58325,95586,61865,-64,-539,841
05.10.2024 20:30:10:254,920,0,1,2,58309,95578,61863,-68,-539,835
05.10.2024 20:30:10:258,921,0,1,2,58293,95577,61864,-64,-536,835
05.10.2024 20:30:10:262,922,0,1,2,58283,95572,61865,-59,-539,834
05.10.2024 20:30:10:266,923,0,1,2,58273,95569,61864,-61,-539,842
05.10.2024 20:30:10:270,924,0,1,2,58257,95565,61860,-60,-533,841
05.10.2024 20:30:10:274,925,0,1,2,58238,95565,61864,-65,-537,833
05.10.2024 20:30:10:278,926,0,1,2,58237,95563,61861,-67,-539,838
05.10.2024 20:30:10:282,927,0,1,2,58222,95561,61859,-61,-538,833
05.10.2024 20:30:10:286,928,0,1,2,58218,95555,61860,-64,-543,833
05.10.2024 20:30:10:289,929,0,1,2,58208,95559,61859,-65,-542,835
05.10.2024 20:30:10:293,930,0,1,2,58199,95548,61860,-68,-541,838
05.10.2024 20:30:10:297,931,0,1,2,58191,95554,61861,-68,-539,835
05.10.2024 20:30:10:301,932,0,1,2,58189,95548,61861,-66,-538,835
05.10.2024 20:30:10:305,933,0,1,2,58177,95544,61862,-59,-536,836
05.10.2024 20:30:10:309,934,0,1,2,58176,95550,61860,-64,-532,841
05.10.2024 20:30:10:313,935,0,1,2,58171,95543,61863,-66,-540,835
05.10.2024 20:30:10:317,936,0,1,2,58164,95541,61861,-70,-540,837
05.10.2024 20:30:10:321,937,0,1,2,58162,95546,61860,-63,-538,836
05.10.2024 20:30:10:325,938,0,1,2,58153,95541,61858,-62,-541,837
05.10.2024 20:30:10:329,939,0,1,2,58154,95535,61856,-62,-536,836
05.10.2024 20:30:10:332,940,0,1,2,58159,95536,61857,-61,-538,840
05.10.2024 20:30:10:336,941,0,1,2,58152,95535,61857,-63,-537,839
05.10.2024 20:30:10:340,942,0,1,2,58149,95536,61856,-63,-538,836
05.10.2024 20:30:10:344,943,0,1,2,58147,95532,61856,-60,-538,840
05.10.2024 20:30:10:348,944,0,1,2,58147,95528,61855,-61,-537,836
05.10.2024 20:30:10:352,945,0,1,2,58141,95525,61851,-68,-535,836
05.10.2024 20:30:10:356,946,0,1,2,58150,95523,61852,-71,-538,840
05.10.2024 20:30:10:360,947,0,1,2,58141,95525,61851,-65,-533,839
05.10.2024 20:30:10:364,948,0,1,2,58143,95518,61850,-69,-535,845
05.10.2024 20:30:10:368,949,0,1,2,58146,95520,61852,-65,-545,838
05.10.2024 20:30:10:371,950,0,1,2,58143,95517,61851,-65,-537,843
05.10.2024 20:30:10:375,951,0,1,2,58147,95513,61848,-63,-538,841
05.10.2024 20:30:10:379,952,0,1,2,58144,95509,61848,-66,-535,839
05.10.2024 20:30:10:383,953,0,1,2,58144,95512,61846,-69,-532,835
05.10.2024 20:30:10:387,954,0,1,2,58144,95511,61845,-63,-544,838
05.10.2024 20:30:10:391,955,0,1,2,58145,95502,61843,-60,-544,838
05.10.2024 20:30:10:395,956,0,1,2,58143,95501,61845,-69,-542,836
05.10.2024 20:30:10:399,957,0,1,2,58145,95503,61845,-62,-537,839
05.10.2024 20:30:10:403,958,0,1,2,58144,95499,61845,-65,-542,840
05.10.2024 20:30:10:407,959,0,1,2,58146,95500,61841,-68,-545,830
05.10.2024 20:30:10:410,960,0,1,2,58144,95500,61842,-62,-542,835
05.10.2024 20:30:10:414,961,0,1,2,58146,95490,61840,-62,-538,833
05.10.2024 20:30:10:418,962,0,1,2,58144,95494,61838,-64,-539,831
05.10.2024 20:30:10:422,963,0,1,2,58147,95494,61843,-66,-541,837
05.10.2024 20:30:10:426,964,0,1,2,58144,95492,61836,-61,-535,840
05.10.2024 20:30:10:430,965,0,1,2,58147,95487,61840,-60,-542,836
05.10.2024 20:30:10:434,966,0,1,2,58144,95487,61839,-67,-537,843
05.10.2024 20:30:10:438,967,0,1,2,58137,95481,61840,-65,-538,833
05.10.2024 20:30:10:442,968,0,1,2,58138,95482,61840,-65,-534,838
05.10.2024 20:30:10:446,969,0,1,2,58135,95483,61836,-68,-533,839
05.10.2024 20:30:10:450,970,0,1,2,58137,95484,61840,-65,-536,844
05.10.2024 20:30:10:453,971,0,1,2,58126,95476,61840,-65,-538,832
05.10.2024 20:30:10:457,972,0,1,2,58118,95477,61837,-65,-538,835
05.10.2024 20:30:10:461,973,0,1,2,58133,95476,61839,-62,-538,836
05.10.2024 20:30:10:465,974,0,1,2,58121,95470,61837,-65,-537,839
05.10.2024 20:30:10:469,975,0,1,2,58115,95465,61835,-63,-535,834
05.10.2024 20:30:10:473,976,0,1,2,58108,95464,61833,-65,-540,837
05.10.2024 20:30:10:477,977,0,1,2,58107,95458,61833,-68,-537,838
05.10.2024 20:30:10:481,978,0,1,2,58107,95453,61829,-62,-535,837
05.10.2024 20:30:10:485,979,0,1,2,58099,95456,61827,-61,-544,835
05.10.2024 20:30:10:489,980,0,1,2,58093,95444,61828,-66,-539,834
05.10.2024 20:30:10:492,981,0,1,2,58090,95444,61827,-67,-538,834
05.10.2024 20:30:10:496,982,0,1,2,58083,95443,61824,-67,-537,840
05.10.2024 20:30:10:500,983,0,1,2,58079,95436,61822,-57,-538,842
05.10.2024 20:30:10:504,984,0,1,2,58072,95435,61821,-64,-543,830
05.10.2024 20:30:10:508,985,0,1,2,58072,95434,61815,-67,-542,839
05.10.2024 20:30:10:512,986,0,1,2,58060,95427,61818,-59,-538,838
05.10.2024 20:30:10:516,987,0,1,2,58056,95420,61815,-62,-542,837
05.10.2024 20:30:10:520,988,0,1,2,58059,95420,61812,-63,-540,837
05.10.2024 20:30:10:524,989,0,1,2,58053,95416,61812,-60,-541,837
05.10.2024 20:30:10:528,990,0,1,2,58045,95415,61806,-65,-540,837
05.10.2024 20:30:10:531,991,0,1,2,58046,95407,61804,-63,-538,835
05.10.2024 20:30:10:535,992,0,1,2,58036,95406,61803,-68,-537,839
05.10.2024 20:30:10:539,993,0,1,2,58040,95404,61803,-63,-539,840
05.10.2024 20:30:10:543,994,0,1,2,58034,95395,61801,-63,-540,836
05.10.2024 20:30:10:547,995,0,1,2,58034,95399,61800,-62,-542,833
05.10.2024 20:30:10:551,996,0,1,2,58041,95397,61801,-64,-536,838
05.10.2024 20:30:10:555,997,0,1,2,58025,95396,61799,-62,-540,834
05.10.2024 20:30:10:559,998,0,1,2,58016,95391,61797,-65,-539,843
05.10.2024 20:30:10:563,999,0,1,2,58013,95385,61797,-66,-542,835
05.10.2024 20:30:10:567,1000,0,1,2,58021,95391,61798,-60,-541,837
05.10.2024 20:30:10:570,1001,0,1,2,58011,95384,61798,-62,-541,834
05.10.2024 20:30:10:574,1002,0,1,2,58015,95383,61794,-64,-541,839
05.10.2024 20:30:10:578,1003,0,1,2,58012,95381,61794,-63,-536,842
05.10.2024 20:30:10:582,1004,0,1,2,58014,95377,61788,-64,-541,841
05.10.2024 20:30:10:586,1005,0,1,2,58008,95374,61790,-64,-541,844
05.10.2024 20:30:10:590,1006,0,1,2,58008,95372,61790,-58,-536,838
05.10.2024 20:30:10:594,1007,0,1,2,58009,95366,61791,-63,-541,830
05.10.2024 20:30:10:598,1008,0,1,2,58009,95371,61791,-62,-544,844
05.10.2024 20:30:10:602,1009,0,1,2,58010,95371,61787,-68,-539,835
05.10.2024 20:30:10:606,1010,0,1,2,58004,95366,61788,-59,-535,845
05.10.2024 20:30:10:610,1011,0,1,2,58009,95364,61788,-62,-535,836
05.10.2024 20:30:10:613,1012,0,1,2,58010,95363,61786,-58,-539,831
05.10.2024 20:30:10:617,1013,0,1,2,58012,95363,61782,-65,-542,837
05.10.2024 20:30:10:621,1014,0,1,2,58013,95360,61784,-63,-546,836
05.10.2024 20:30:10:625,1015,0,1,2,58019,95359,61784,-65,-534,838
05.10.2024 20:30:10:629,1016,0,1,2,58010,95351,61786,-67,-539,833
05.10.2024 20:30:10:633,1017,0,1,2,58020,95347,61784,-63,-536,840
05.10.2024 20:30:10:637,1018,0,1,2,58013,95349,61783,-62,-544,836
05.10.2024 20:30:10:641,1019,0,1,2,58015,95349,61783,-69,-542,838
05.10.2024 20:30:10:645,1020,0,1,2,58014,95350,61779,-64,-541,840
05.10.2024 20:30:10:649,1021,0,1,2,58013,95351,61778,-62,-547,838
05.10.2024 20:30:10:652,1022,0,1,2,58019,95341,61780,-64,-540,839
05.10.2024 20:30:10:656,1023,0,1,2,58015,95342,61781,-58,-536,841
05.10.2024 20:30:10:660,1024,0,1,2,58025,95344,61777,-61,-537,836
05.10.2024 20:30:10:664,1025,0,1,2,58025,95344,61777,-62,-537,837
05.10.2024 20:30:10:668,1026,0,1,2,58023,95341,61781,-62,-541,840
05.10.2024 20:30:10:672,1027,0,1,2,58022,95338,61777,-64,-537,836
05.10.2024 20:30:10:676,1028,0,1,2,58025,95337,61776,-62,-537,838
05.10.2024 20:30:10:680,1029,0,1,2,58028,95331,61774,-64,-536,840
05.10.2024 20:30:10:684,1030,0,1,2,58027,95332,61774,-62,-538,837
05.10.2024 20:30:10:688,1031,0,1,2,58030,95330,61774,-62,-538,839
05.10.2024 20:30:10:691,1032,0,1,2,58032,95326,61771,-62,-539,835
05.10.2024 20:30:10:695,1033,0,1,2,58035,95330,61771,-65,-535,836
05.10.2024 20:30:10:699,1034,0,1,2,58034,95322,61772,-69,-540,836
05.10.2024 20:30:10:703,1035,0,1,2,58034,95315,61768,-67,-541,832
05.10.2024 20:30:10:707,1036,0,1,2,58035,95321,61772,-67,-535,837
05.10.2024 20:30:10:711,1037,0,1,2,58036,95319,61767,-68,-538,835
05.10.2024 20:30:10:715,1038,0,1,2,58039,95312,61767,-66,-539,839
05.10.2024 20:30:10:719,1039,0,1,2,58038,95311,61767,-70,-539,840
05.10.2024 20:30:10:723,1040,0,1,2,58037,95311,61764,-61,-542,834
05.10.2024 20:30:10:727,1041,0,1,2,58039,95312,61767,-67,-544,832
05.10.2024 20:30:10:731,1042,0,1,2,58042,95309,61763,-76,-539,840
05.10.2024 20:30:10:734,1043,0,1,2,58041,95303,61761,-71,-537,845
05.10.2024 20:30:10:738,1044,0,1,2,58045,95304,61764,-61,-533,837
05.10.2024 20:30:10:742,1045,0,1,2,58047,95302,61759,-59,-538,833
05.10.2024 20:30:10:746,1046,0,1,2,58047,95297,61759,-63,-540,838
05.10.2024 20:30:10:750,1047,0,1,2,58052,95299,61758,-52,-540,838
05.10.2024 20:30:10:754,1048,0,1,2,58051,95292,61755,-61,-547,837
05.10.2024 20:30:10:758,1049,0,1,2,58058,95290,61754,-58,-544,835
05.10.2024 20:30:10:762,1050,0,1,2,58050,95289,61752,-66,-542,833
05.10.2024 20:30:10:766,1051,0,1,2,58056,95283,61751,-66,-538,838
05.10.2024 20:30:10:770,1052,0,1,2,58052,95279,61750,-62,-536,836
05.10.2024 20:30:10:773,1053,0,1,2,58052,95282,61753,-58,-540,841
05.10.2024 20:30:10:777,1054,0,1,2,58054,95278,61749,-61,-544,838
05.10.2024 20:30:10:781,1055,0,1,2,58055,95274,61745,-64,-543,833
05.10.2024 20:30:10:785,1056,0,1,2,58054,95279,61746,-65,-543,839
05.10.2024 20:30:10:789,1057,0,1,2,58048,95271,61748,-65,-543,837
05.10.2024 20:30:10:793,1058,0,1,2,58044,95277,61749,-70,-542,834
05.10.2024 20:30:10:797,1059,0,1,2,58040,95268,61748,-68,-539,839
05.10.2024 20:30:10:801,1060,0,1,2,58033,95259,61744,-70,-542,833
05.10.2024 20:30:10:805,1061,0,1,2,58024,95262,61742,-71,-542,832
05.10.2024 20:30:10:809,1062,0,1,2,58016,95255,61741,-68,-540,833
05.10.2024 20:30:10:812,1063,0,1,2,58000,95248,61742,-67,-542,840
05.10.2024 20:30:10:816,1064,0,1,2,57988,95248,61738,-70,-543,830
05.10.2024 20:30:10:820,1065,0,1,2,57965,95249,61744,-70,-541,832
05.10.2024 20:30:10:824,1066,0,1,2,57953,95243,61740,-66,-540,838
05.10.2024 20:30:10:828,1067,0,1,2,57943,95231,61739,-63,-544,836
05.10.2024 20:30:10:832,1068,0,1,2,57919,95226,61739,-68,-537,837
05.10.2024 20:30:10:836,1069,0,1,2,57900,95227,61739,-63,-536,839
05.10.2024 20:30:10:840,1070,0,1,2,57885,95221,61741,-69,-537,840
05.10.2024 20:30:10:844,1071,0,1,2,57862,95213,61736,-69,-542,838
05.10.2024 20:30:10:848,1072,0,1,2,57845,95212,61735,-63,-539,838
05.10.2024 20:30:10:852,1073,0,1,2,57822,95211,61732,-61,-538,839
05.10.2024 20:30:10:855,1074,0,1,2,57805,95202,61737,-64,-538,832
05.10.2024 20:30:10:859,1075,0,1,2,57783,95199,61731,-67,-536,831
05.10.2024 20:30:10:863,1076,0,1,2,57767,95194,61736,-68,-534,836
05.10.2024 20:30:10:867,1077,0,1,2,57754,95190,61731,-66,-538,839
05.10.2024 20:30:10:871,1078,0,1,2,57729,95185,61733,-66,-544,839
05.10.2024 20:30:10:875,1079,0,1,2,57713,95184,61730,-64,-536,841
05.10.2024 20:30:10:879,1080,0,1,2,57699,95181,61731,-62,-538,833
05.10.2024 20:30:10:883,1081,0,1,2,57684,95174,61728,-65,-539,839
05.10.2024 20:30:10:887,1082,0,1,2,57668,95167,61728,-67,-537,834
05.10.2024 20:30:10:891,1083,0,1,2,57664,95170,61728,-69,-535,835
05.10.2024 20:30:10:894,1084,0,1,2,57649,95163,61726,-64,-536,836
05.10.2024 20:30:10:898,1085,0,1,2,57639,95160,61731,-64,-537,836
05.10.2024 20:30:10:902,1086,0,1,2,57629,95157,61725,-66,-540,834
05.10.2024 20:30:10:906,1087,0,1,2,57627,95154,61724,-64,-540,837
05.10.2024 20:30:10:910,1088,0,1,2,57615,95152,61724,-64,-539,841
05.10.2024 20:30:10:914,1089,0,1,2,57612,95147,61722,-68,-540,834
05.10.2024 20:30:10:918,1090,0,1,2,57603,95146,61723,-63,-539,838
05.10.2024 20:30:10:922,1091,0,1,2,57597,95142,61720,-66,-539,842
05.10.2024 20:30:10:926,1092,0,1,2,57596,95138,61723,-60,-542,840
05.10.2024 20:30:10:930,1093,0,1,2,57587,95135,61720,-55,-540,840
05.10.2024 20:30:10:933,1094,0,1,2,57588,95135,61716,-67,-539,839
05.10.2024 20:30:10:937,1095,0,1,2,57580,95137,61720,-66,-539,832
05.10.2024 20:30:10:941,1096,0,1,2,57580,95125,61716,-67,-542,832
05.10.2024 20:30:10:945,1097,0,1,2,57578,95129,61719,-64,-544,836
05.10.2024 20:30:10:949,1098,0,1,2,57573,95127,61719,-63,-542,836
05.10.2024 20:30:10:953,1099,0,1,2,57573,95126,61716,-64,-540,840
05.10.2024 20:30:10:957,1100,0,1,2,57569,95125,61716,-65,-537,843
05.10.2024 20:30:10:961,1101,0,1,2,57567,95120,61717,-70,-536,838
05.10.2024 20:30:10:965,1102,0,1,2,57575,95122,61717,-66,-536,838
05.10.2024 20:30:10:969,1103,0,1,2,57572,95117,61715,-62,-538,838
05.10.2024 20:30:10:973,1104,0,1,2,57565,95118,61715,-67,-535,838
05.10.2024 20:30:10:976,1105,0,1,2,57570,95115,61715,-69,-542,838
05.10.2024 20:30:10:980,1106,0,1,2,57561,95117,61713,-69,-536,839
05.10.2024 20:30:10:984,1107,0,1,2,57566,95111,61716,-68,-542,839
05.10.2024 20:30:10:988,1108,0,1,2,57562,95105,61716,-69,-540,837
05.10.2024 20:30:10:992,1109,0,1,2,57565,95105,61709,-69,-537,837
05.10.2024 20:30:10:996,1110,0,1,2,57561,95107,61713,-62,-540,840
05.10.2024 20:30:11:0,1111,0,1,2,57566,95101,61711,-65,-539,836
05.10.2024 20:30:11:4,1112,0,1,2,57564,95102,61713,-66,-536,838
05.10.2024 20:30:11:8,1113,0,1,2,57566,95103,61711,-70,-540,837
05.10.2024 20:30:11:12,1114,0,1,2,57570,95098,61710,-61,-540,839
05.10.2024 20:30:11:15,1115,0,1,2,57571,95100,61709,-68,-537,830
05.10.2024 20:30:11:19,1116,0,1,2,57562,95097,61713,-70,-539,841
05.10.2024 20:30:11:23,1117,0,1,2,57561,95097,61712,-64,-537,837
05.10.2024 20:30:11:27,1118,0,1,2,57567,95097,61714,-64,-533,837
05.10.2024 20:30:11:31,1119,0,1,2,57563,95094,61709,-63,-543,838
05.10.2024 20:30:11:35,1120,0,1,2,57571,95097,61710,-66,-537,846
05.10.2024 20:30:11:39,1121,0,1,2,57559,95090,61710,-64,-537,829
05.10.2024 20:30:11:43,1122,0,1,2,57557,95084,61710,-65,-540,835
05.10.2024 20:30:11:47,1123,0,1,2,57553,95087,61706,-60,-541,837
05.10.2024 20:30:11:51,1124,0,1,2,57557,95086,61712,-67,-540,837
05.10.2024 20:30:11:54,1125,0,1,2,57557,95083,61709,-65,-537,831
05.10.2024 20:30:11:58,1126,0,1,2,57550,95083,61708,-67,-538,838
05.10.2024 20:30:11:62,1127,0,1,2,57551,95081,61711,-68,-540,838
05.10.2024 20:30:11:66,1128,0,1,2,57547,95082,61709,-65,-543,843
05.10.2024 20:30:11:70,1129,0,1,2,57538,95076,61710,-69,-535,838
05.10.2024 20:30:11:74,1130,0,1,2,57540,95075,61708,-63,-541,838
05.10.2024 20:30:11:78,1131,0,1,2,57535,95072,61709,-64,-533,839
05.10.2024 20:30:11:82,1132,0,1,2,57531,95070,61706,-4,-537,838
05.10.2024 20:30:11:86,1133,0,1,2,57528,95064,61703,-65,-539,833
05.10.2024 20:30:11:90,1134,0,1,2,57525,95066,61705,-65,-537,840
05.10.2024 20:30:11:94,1135,0,1,2,57521,95057,61707,-65,-538,841
05.10.2024 20:30:11:97,1136,0,1,2,57517,95059,61706,-64,-540,842
05.10.2024 20:30:11:101,1137,0,1,2,57511,95058,61704,-64,-539,836
05.10.2024 20:30:11:105,1138,0,1,2,57508,95053,61705,-64,-535,835
05.10.2024 20:30:11:109,1139,0,1,2,57500,95056,61705,-66,-538,840
05.10.2024 20:30:11:113,1140,0,1,2,57497,95052,61702,-66,-539,839
05.10.2024 20:30:11:117,1141,0,1,2,57497,95046,61702,-64,-537,834
05.10.2024 20:30:11:121,1142,0,1,2,57486,95042,61699,-63,-539,843
05.10.2024 20:30:11:125,1143,0,1,2,57480,95040,61701,-66,-542,841
05.10.2024 20:30:11:129,1144,0,1,2,57478,95039,61699,-59,-537,836
05.10.2024 20:30:11:133,1145,0,1,2,57471,95031,61696,-66,-538,841
05.10.2024 20:30:11:136,1146,0,1,2,57472,95035,61697,-67,-542,839
05.10.2024 20:30:11:140,1147,0,1,2,57468,95028,61697,-69,-543,836
05.10.2024 20:30:11:144,1148,0,1,2,57458,95025,61693,-69,-542,836
05.10.2024 20:30:11:148,1149,0,1,2,57457,95018,61692,-68,-538,834
05.10.2024 20:30:11:152,1150,0,1,2,57455,95021,61693,-63,-542,838
05.10.2024 20:30:11:156,1151,0,1,2,57457,95017,61691,-66,-539,840
05.10.2024 20:30:11:160,1152,0,1,2,57448,95012,61691,-69,-541,841
05.10.2024 20:30:11:164,1153,0,1,2,57449,95012,61690,-63,-536,837
05.10.2024 20:30:11:168,1154,0,1,2,57441,95010,61687,-67,-539,838
05.10.2024 20:30:11:172,1155,0,1,2,57443,95008,61687,-62,-541,834
05.10.2024 20:30:11:175,1156,0,1,2,57446,95003,61686,-63,-535,836
05.10.2024 20:30:11:179,1157,0,1,2,57444,95006,61684,-64,-538,838
05.10.2024 20:30:11:183,1158,0,1,2,57450,94998,61682,-65,-538,837
05.10.2024 20:30:11:187,1159,0,1,2,57445,94995,61684,-61,-536,838
05.10.2024 20:30:11:191,1160,0,1,2,57438,94991,61686,-67,-538,838
05.10.2024 20:30:11:195,1161,0,1,2,57444,94990,61682,-72,-538,839
05.10.2024 20:30:11:199,1162,0,1,2,57438,94992,61685,-66,-546,834
05.10.2024 20:30:11:203,1163,0,1,2,57441,94990,61685,-64,-539,838
05.10.2024 20:30:11:207,1164,0,1,2,57443,94987,61680,-63,-546,838
05.10.2024 20:30:11:211,1165,0,1,2,57445,94981,61681,-71,-540,830
05.10.2024 20:30:11:215,1166,0,1,2,57443,94985,61683,-70,-530,836
05.10.2024 20:30:11:218,1167,0,1,2,57437,94986,61681,-67,-541,829
05.10.2024 20:30:11:222,1168,0,1,2,57444,94979,61679,-61,-540,837
05.10.2024 20:30:11:226,1169,0,1,2,57441,94980,61679,-69,-543,840
05.10.2024 20:30:11:230,1170,0,1,2,57442,94973,61679,-66,-539,838
05.10.2024 20:30:11:234,1171,0,1,2,57448,94970,61677,-67,-537,841
05.10.2024 20:30:11:238,1172,0,1,2,57451,94977,61678,-60,-536,841
05.10.2024 20:30:11:242,1173,0,1,2,57452,94972,61677,-63,-540,843
05.10.2024 20:30:11:246,1174,0,1,2,57453,94972,61677,-61,-541,843
05.10.2024 20:30:11:250,1175,0,1,2,57455,94970,61676,-62,-541,841
05.10.2024 20:30:11:254,1176,0,1,2,57454,94967,61677,-68,-536,838
05.10.2024 20:30:11:257,1177,0,1,2,57465,94964,61675,-66,-540,834
05.10.2024 20:30:11:261,1178,0,1,2,57460,94965,61677,-64,-534,837
05.10.2024 20:30:11:265,1179,0,1,2,57459,94961,61672,-68,-535,838
05.10.2024 20:30:11:269,1180,0,1,2,57463,94960,61675,-69,-535,836
05.10.2024 20:30:11:273,1181,0,1,2,57461,94960,61673,-60,-536,836
05.10.2024 20:30:11:277,1182,0,1,2,57465,94957,61674,-63,-535,836
05.10.2024 20:30:11:281,1183,0,1,2,57466,94955,61674,-68,-537,837
05.10.2024 20:30:11:285,1184,0,1,2,57462,94956,61672,-67,-533,840
05.10.2024 20:30:11:289,1185,0,1,2,57472,94951,61671,-59,-545,836
05.10.2024 20:30:11:293,1186,0,1,2,57474,94951,61674,-63,-538,834
05.10.2024 20:30:11:296,1187,0,1,2,57473,94945,61672,-69,-538,845
05.10.2024 20:30:11:300,1188,0,1,2,57472,94948,61671,-70,-540,841
05.10.2024 20:30:11:304,1189,0,1,2,57476,94948,61669,-67,-535,836
05.10.2024 20:30:11:308,1190,0,1,2,57475,94940,61669,-63,-536,836
05.10.2024 20:30:11:312,1191,0,1,2,57483,94941,61666,-62,-541,835
05.10.2024 20:30:11:316,1192,0,1,2,57486,94937,61668,-66,-538,840
05.10.2024 20:30:11:320,1193,0,1,2,57487,94928,61665,-65,-541,840
05.10.2024 20:30:11:324,1194,0,1,2,57491,94929,61664,-68,-545,839
05.10.2024 20:30:11:328,1195,0,1,2,57489,94932,61662,-63,-537,833
05.10.2024 20:30:11:332,1196,0,1,2,57495,94931,61665,-66,-535,840
05.10.2024 20:30:11:336,1197,0,1,2,57490,94920,61660,-62,-540,839
05.10.2024 20:30:11:339,1198,0,1,2,57498,94923,61659,-65,-540,833
05.10.2024 20:30:11:343,1199,0,1,2,57493,94918,61662,-65,-543,831
05.10.2024 20:30:11:347,1200,0,1,2,57501,94913,61655,-61,-540,831
05.10.2024 20:30:11:351,1201,0,1,2,57499,94916,61657,-68,-537,834
05.10.2024 20:30:11:355,1202,0,1,2,57502,94916,61656,-68,-541,840
05.10.2024 20:30:11:359,1203,0,1,2,57500,94910,61655,-64,-539,835
05.10.2024 20:30:11:363,1204,0,1,2,57499,94908,61658,-60,-539,834
05.10.2024 20:30:11:367,1205,0,1,2,57508,94905,61654,-63,-536,834
05.10.2024 20:30:11:371,1206,0,1,2,57503,94902,61653,-60,-540,836
05.10.2024 20:30:11:375,1207,0,1,2,57509,94898,61650,-73,-537,845
05.10.2024 20:30:11:378,1208,0,1,2,57510,94898,61650,-66,-538,837
05.10.2024 20:30:11:382,1209,0,1,2,57512,94898,61650,-65,-536,841
05.10.2024 20:30:11:386,1210,0,1,2,57517,94897,61651,-62,-535,835
05.10.2024 20:30:11:390,1211,0,1,2,57511,94892,61649,-67,-538,839
05.10.2024 20:30:11:394,1212,0,1,2,57517,94890,61651,-65,-541,841
05.10.2024 20:30:11:398,1213,0,1,2,57512,94890,61650,-69,-537,840
05.10.2024 20:30:11:402,1214,0,1,2,57518,94883,61648,-63,-538,836
05.10.2024 20:30:11:406,1215,0,1,2,57515,94883,61646,-59,-536,836
05.10.2024 20:30:11:410,1216,0,1,2,57521,94880,61645,-72,-539,838
05.10.2024 20:30:11:414,1217,0,1,2,57523,94878,61647,-63,-537,837
05.10.2024 20:30:11:417,1218,0,1,2,57520,94876,61645,-63,-540,832
05.10.2024 20:30:11:421,1219,0,1,2,57525,94873,61645,-66,-538,836
05.10.2024 20:30:11:425,1220,0,1,2,57526,94868,61640,-66,-538,841
05.10.2024 20:30:11:429,1221,0,1,2,57525,94866,61641,-66,-539,838
05.10.2024 20:30:11:433,1222,0,1,2,57526,94866,61641,-61,-542,838
05.10.2024 20:30:11:437,1223,0,1,2,57528,94860,61638,-68,-539,832
05.10.2024 20:30:11:441,1224,0,1,2,57528,94857,61639,-64,-537,830
05.10.2024 20:30:11:445,1225,0,1,2,57532,94861,61637,-65,-536,838
05.10.2024 20:30:11:449,1226,0,1,2,57530,94860,61635,-67,-535,837
05.10.2024 20:30:11:453,1227,0,1,2,57536,94852,61639,-64,-538,836
05.10.2024 20:30:11:457,1228,0,1,2,57536,94852,61634,-68,-541,836
05.10.2024 20:30:11:460,1229,0,1,2,57538,94848,61636,-65,-541,834
05.10.2024 20:30:11:464,1230,0,1,2,57534,94852,61634,-66,-539,839
05.10.2024 20:30:11:468,1231,0,1,2,57543,94851,61634,-65,-539,837
05.10.2024 20:30:11:472,1232,0,1,2,57548,94851,61637,-67,-537,841
05.10.2024 20:30:11:476,1233,0,1,2,57541,94846,61633,-62,-540,834
05.10.2024 20:30:11:480,1234,0,1,2,57537,94839,61635,-69,-540,839
05.10.2024 20:30:11:484,1235,0,1,2,57542,94845,61637,-64,-538,834
05.10.2024 20:30:11:488,1236,0,1,2,57551,94843,61632,-65,-538,835
05.10.2024 20:30:11:492,1237,0,1,2,57550,94842,61632,-67,-541,838
05.10.2024 20:30:11:496,1238,0,1,2,57546,94838,61633,-68,-534,842
05.10.2024 20:30:11:499,1239,0,1,2,57550,94837,61630,-68,-537,841
05.10.2024 20:30:11:503,1240,0,1,2,57551,94834,61634,-63,-540,837
05.10.2024 20:30:11:507,1241,0,1,2,57554,94831,61632,-66,-538,834
05.10.2024 20:30:11:511,1242,0,1,2,57557,94829,61627,-68,-539,843
05.10.2024 20:30:11:515,1243,0,1,2,57557,94822,61629,-62,-544,840
05.10.2024 20:30:11:519,1244,0,1,2,57554,94822,61627,-62,-543,840
05.10.2024 20:30:11:523,1245,0,1,2,57560,94820,61624,-66,-536,841
05.10.2024 20:30:11:527,1246,0,1,2,57561,94819,61624,-68,-544,838
05.10.2024 20:30:11:531,1247,0,1,2,57560,94821,61625,-63,-543,841
05.10.2024 20:30:11:535,1248,0,1,2,57563,94817,61625,-68,-544,838
05.10.2024 20:30:11:538,1249,0,1,2,57555,94816,61623,-66,-541,841
05.10.2024 20:30:11:542,1250,0,1,2,57556,94817,61623,-62,-541,836
05.10.2024 20:30:11:546,1251,0,1,2,57555,94814,61626,-68,-545,832
05.10.2024 20:30:11:550,1252,0,1,2,57547,94809,61624,-68,-542,838
05.10.2024 20:30:11:554,1253,0,1,2,57538,94809,61626,-70,-543,831
05.10.2024 20:30:11:558,1254,0,1,2,57529,94810,61621,-67,-542,838
05.10.2024 20:30:11:562,1255,0,1,2,57519,94798,61627,-61,-543,836
05.10.2024 20:30:11:566,1256,0,1,2,57514,94796,61623,-72,-544,836
05.10.2024 20:30:11:570,1257,0,1,2,57493,94793,61622,-75,-536,833
05.10.2024 20:30:11:574,1258,0,1,2,57471,94788,61619,-73,-540,829
05.10.2024 20:30:11:577,1259,0,1,2,57454,94785,61619,-68,-541,834
05.10.2024 20:30:11:581,1260,0,1,2,57441,94781,61616,-70,-547,830
05.10.2024 20:30:11:585,1261,0,1,2,57421,94769,61616,-68,-543,831
05.10.2024 20:30:11:589,1262,0,1,2,57405,94765,61611,-68,-542,836
05.10.2024 20:30:11:593,1263,0,1,2,57383,94757,61613,-72,-544,834
05.10.2024 20:30:11:597,1264,0,1,2,57367,94756,61611,-70,-543,838
05.10.2024 20:30:11:601,1265,0,1,2,57350,94748,61607,-68,-546,842
05.10.2024 20:30:11:605,1266,0,1,2,57328,94745,61608,-67,-543,839
05.10.2024 20:30:11:609,1267,0,1,2,57307,94738,61606,-71,-541,834
05.10.2024 20:30:11:613,1268,0,1,2,57295,94731,61606,-71,-541,834
05.10.2024 20:30:11:617,1269,0,1,2,57273,94724,61603,-73,-537,835
05.10.2024 20:30:11:620,1270,0,1,2,57259,94718,61599,-64,-538,839
05.10.2024 20:30:11:624,1271,0,1,2,57240,94710,61596,-70,-539,838
05.10.2024 20:30:11:628,1272,0,1,2,57231,94706,61596,-69,-546,837
05.10.2024 20:30:11:632,1273,0,1,2,57214,94707,61596,-69,-539,836
05.10.2024 20:30:11:636,1274,0,1,2,57201,94697,61592,-68,-543,835
05.10.2024 20:30:11:640,1275,0,1,2,57189,94694,61589,-61,-538,839
05.10.2024 20:30:11:644,1276,0,1,2,57185,94688,61594,-68,-542,838
05.10.2024 20:30:11:648,1277,0,1,2,57168,94681,61588,-74,-539,837
05.10.2024 20:30:11:652,1278,0,1,2,57158,94682,61588,-69,-543,837
05.10.2024 20:30:11:656,1279,0,1,2,57147,94675,61583,-72,-541,839
05.10.2024 20:30:11:659,1280,0,1,2,57143,94669,61586,-62,-544,837
05.10.2024 20:30:11:663,1281,0,1,2,57136,94668,61585,-72,-539,842
05.10.2024 20:30:11:667,1282,0,1,2,57127,94669,61583,-68,-542,839
05.10.2024 20:30:11:671,1283,0,1,2,57123,94663,61581,-67,-539,840
05.10.2024 20:30:11:675,1284,0,1,2,57117,94662,61584,-66,-542,831
05.10.2024 20:30:11:679,1285,0,1,2,57112,94656,61581,-67,-541,830
05.10.2024 20:30:11:683,1286,0,1,2,57111,94652,61582,-65,-546,837
05.10.2024 20:30:11:687,1287,0,1,2,57103,94653,61582,-67,-542,835
05.10.2024 20:30:11:691,1288,0,1,2,57105,94652,61580,-68,-545,841
05.10.2024 20:30:11:695,1289,0,1,2,57099,94649,61580,-65,-544,840
05.10.2024 20:30:11:698,1290,0,1,2,57099,94650,61580,-63,-539,832
05.10.2024 20:30:11:702,1291,0,1,2,57088,94643,61577,-62,-545,839
05.10.2024 20:30:11:706,1292,0,1,2,57089,94638,61582,-66,-544,832
05.10.2024 20:30:11:710,1293,0,1,2,57094,94644,61578,-67,-542,839
05.10.2024 20:30:11:714,1294,0,1,2,57089,94635,61575,-68,-540,837
05.10.2024 20:30:11:718,1295,0,1,2,57091,94633,61578,-68,-542,836
05.10.2024 20:30:11:722,1296,0,1,2,57089,94632,61578,-66,-545,838
05.10.2024 20:30:11:726,1297,0,1,2,57087,94633,61571,-71,-539,838
05.10.2024 20:30:11:730,1298,0,1,2,57080,94624,61572,-69,-540,835
05.10.2024 20:30:11:734,1299,0,1,2,57075,94626,61573,-63,-541,834
05.10.2024 20:30:11:738,1300,0,1,2,57088,94624,61573,-62,-544,836
05.10.2024 20:30:11:741,1301,0,1,2,57078,94625,61572,-65,-541,835
05.10.2024 20:30:11:745,1302,0,1,2,57076,94613,61571,-64,-538,835
05.10.2024 20:30:11:749,1303,0,1,2,57078,94620,61571,-66,-540,834
05.10.2024 20:30:11:753,1304,0,1,2,57077,94610,61569,-69,-540,835
05.10.2024 20:30:11:757,1305,0,1,2,57078,94609,61571,-67,-538,838
05.10.2024 20:30:11:761,1306,0,1,2,57080,94610,61567,-65,-540,835
05.10.2024 20:30:11:765,1307,0,1,2,57078,94600,61567,-69,-540,840
05.10.2024 20:30:11:769,1308,0,1,2,57073,94601,61567,-67,-542,832
05.10.2024 20:30:11:773,1309,0,1,2,57080,94595,61568,-70,-543,836
05.10.2024 20:30:11:777,1310,0,1,2,57077,94594,61568,-68,-542,836
05.10.2024 20:30:11:780,1311,0,1,2,57085,94593,61568,-69,-542,837
05.10.2024 20:30:11:784,1312,0,1,2,57082,94591,61564,-66,-540,842
05.10.2024 20:30:11:788,1313,0,1,2,57084,94591,61564,-68,-546,837
05.10.2024 20:30:11:792,1314,0,1,2,57075,94583,61564,-73,-540,839
05.10.2024 20:30:11:796,1315,0,1,2,57073,94582,61560,-64,-542,838
05.10.2024 20:30:11:800,1316,0,1,2,57081,94575,61557,-64,-537,836
05.10.2024 20:30:11:804,1317,0,1,2,57082,94575,61559,-66,-543,836
05.10.2024 20:30:11:808,1318,0,1,2,57072,94573,61555,-69,-542,837
05.10.2024 20:30:11:812,1319,0,1,2,57077,94568,61557,-70,-545,832
05.10.2024 20:30:11:816,1320,0,1,2,57072,94566,61555,-66,-541,835
05.10.2024 20:30:11:819,1321,0,1,2,57068,94562,61552,-67,-543,833
05.10.2024 20:30:11:823,1322,0,1,2,57066,94557,61557,-72,-541,837
05.10.2024 20:30:11:827,1323,0,1,2,57067,94553,61557,-67,-538,834
05.10.2024 20:30:11:831,1324,0,1,2,57060,94553,61557,-74,-536,834
05.10.2024 20:30:11:835,1325,0,1,2,57062,94549,61554,-67,-538,836
05.10.2024 20:30:11:839,1326,0,1,2,57057,94546,61553,-70,-543,828
05.10.2024 20:30:11:843,1327,0,1,2,57053,94548,61553,-70,-540,832
05.10.2024 20:30:11:847,1328,0,1,2,57049,94543,61554,-70,-543,839
05.10.2024 20:30:11:851,1329,0,1,2,57043,94536,61555,-72,-547,833
05.10.2024 20:30:11:855,1330,0,1,2,57040,94538,61552,-69,-538,833
05.10.2024 20:30:11:859,1331,0,1,2,57040,94535,61553,-72,-545,831
05.10.2024 20:30:11:862,1332,0,1,2,57037,94527,61551,-66,-545,832
05.10.2024 20:30:11:866,1333,0,1,2,57030,94523,61555,-60,-546,836
05.10.2024 20:30:11:870,1334,0,1,2,57029,94526,61550,-67,-539,835
05.10.2024 20:30:11:874,1335,0,1,2,57021,94524,61548,-64,-543,834
05.10.2024 20:30:11:878,1336,0,1,2,57021,94517,61549,-61,-540,840
05.10.2024 20:30:11:882,1337,0,1,2,57016,94516,61549,-62,-540,842
05.10.2024 20:30:11:886,1338,0,1,2,57013,94512,61547,-68,-541,833
05.10.2024 20:30:11:890,1339,0,1,2,57009,94504,61550,-68,-542,840
05.10.2024 20:30:11:894,1340,0,1,2,57003,94511,61551,-65,-546,838
05.10.2024 20:30:11:898,1341,0,1,2,57000,94504,61549,-64,-541,840
05.10.2024 20:30:11:901,1342,0,1,2,56992,94500,61547,-61,-544,834
05.10.2024 20:30:11:905,1343,0,1,2,56994,94504,61547,-67,-545,833
05.10.2024 20:30:11:909,1344,0,1,2,56992,94502,61547,-63,-546,833
05.10.2024 20:30:11:913,1345,0,1,2,57000,94496,61546,-64,-541,836
05.10.2024 20:30:11:917,1346,0,1,2,56988,94489,61547,-68,-542,831
05.10.2024 20:30:11:921,1347,0,1,2,56979,94490,61548,-64,-543,839
05.10.2024 20:30:11:925,1348,0,1,2,56982,94491,61545,-62,-544,833
05.10.2024 20:30:11:929,1349,0,1,2,56981,94486,61539,-64,-550,827
05.10.2024 20:30:11:933,1350,0,1,2,56974,94479,61541,-67,-543,836
05.10.2024 20:30:11:937,1351,0,1,2,56975,94479,61538,-65,-549,839
05.10.2024 20:30:11:940,1352,0,1,2,56977,94474,61541,-62,-542,837
05.10.2024 20:30:11:944,1353,0,1,2,56979,94470,61537,-67,-547,834
05.10.2024 20:30:11:948,1354,0,1,2,56973,94468,61538,-70,-544,833
05.10.2024 20:30:11:952,1355,0,1,2,56969,94470,61534,-65,-543,835
05.10.2024 20:30:11:956,1356,0,1,2,56972,94464,61540,-67,-546,836
05.10.2024 20:30:11:960,1357,0,1,2,56980,94463,61537,-64,-542,830
05.10.2024 20:30:11:964,1358,0,1,2,56976,94462,61533,-68,-550,835
05.10.2024 20:30:11:968,1359,0,1,2,56969,94452,61535,-69,-545,831
05.10.2024 20:30:11:972,1360,0,1,2,56974,94459,61534,-69,-543,836
05.10.2024 20:30:11:976,1361,0,1,2,56974,94456,61535,-69,-541,833
05.10.2024 20:30:11:980,1362,0,1,2,56974,94459,61535,-69,-542,834
05.10.2024 20:30:11:983,1363,0,1,2,56979,94453,61534,-68,-544,832
05.10.2024 20:30:11:987,1364,0,1,2,56981,94452,61535,-75,-541,835
05.10.2024 20:30:11:991,1365,0,1,2,56979,94447,61534,-67,-543,837
05.10.2024 20:30:11:995,1366,0,1,2,56985,94452,61533,-66,-544,831
05.10.2024 20:30:11:999,1367,0,1,2,56978,94452,61536,-69,-547,832
05.10.2024 20:30:12:3,1368,0,1,2,56978,94446,61533,-62,-546,833
05.10.2024 20:30:12:7,1369,0,1,2,56986,94444,61532,-67,-549,832
05.10.2024 20:30:12:11,1370,0,1,2,56985,94449,61535,-70,-545,841
05.10.2024 20:30:12:15,1371,0,1,2,56989,94449,61535,-63,-545,832
05.10.2024 20:30:12:19,1372,0,1,2,56988,94448,61538,-71,-538,833
05.10.2024 20:30:12:22,1373,0,1,2,56991,94443,61534,-66,-545,837
05.10.2024 20:30:12:26,1374,0,1,2,56990,94443,61534,-72,-549,840
05.10.2024 20:30:12:30,1375,0,1,2,56998,94439,61537,-69,-546,835
05.10.2024 20:30:12:34,1376,0,1,2,57001,94441,61535,-70,-542,832
05.10.2024 20:30:12:38,1377,0,1,2,57000,94440,61538,-73,-541,836
05.10.2024 20:30:12:42,1378,0,1,2,56996,94443,61538,-69,-542,835
05.10.2024 20:30:12:46,1379,0,1,2,57000,94446,61536,-68,-545,840
05.10.2024 20:30:12:50,1380,0,1,2,57001,94439,61537,-67,-540,832
05.10.2024 20:30:12:54,1381,0,1,2,57005,94441,61535,-63,-540,836
05.10.2024 20:30:12:58,1382,0,1,2,57010,94438,61533,-70,-543,833
05.10.2024 20:30:12:61,1383,0,1,2,57010,94435,61535,-67,-545,835
05.10.2024 20:30:12:65,1384,0,1,2,57017,94436,61539,-74,-538,829
05.10.2024 20:30:12:69,1385,0,1,2,57017,94433,61533,-69,-544,835
05.10.2024 20:30:12:73,1386,0,1,2,57015,94431,61536,-67,-545,836
05.10.2024 20:30:12:77,1387,0,1,2,57016,94435,61534,-67,-547,834
05.10.2024 20:30:12:81,1388,0,1,2,57022,94428,61537,-66,-547,837
05.10.2024 20:30:12:85,1389,0,1,2,57029,94425,61535,-66,-547,832
05.10.2024 20:30:12:89,1390,0,1,2,57029,94424,61535,-63,-541,837
05.10.2024 20:30:12:93,1391,0,1,2,57031,94424,61534,-73,-541,835
05.10.2024 20:30:12:97,1392,0,1,2,57039,94420,61538,-70,-541,833
05.10.2024 20:30:12:101,1393,0,1,2,57037,94420,61537,-70,-542,836
05.10.2024 20:30:12:104,1394,0,1,2,57047,94421,61532,-65,-541,832
05.10.2024 20:30:12:108,1395,0,1,2,57049,94419,61530,-65,-541,832
05.10.2024 20:30:12:112,1396,0,1,2,57047,94412,61535,-71,-544,835
05.10.2024 20:30:12:116,1397,0,1,2,57052,94418,61535,-66,-549,832
05.10.2024 20:30:12:120,1398,0,1,2,57051,94416,61536,-70,-542,833
05.10.2024 20:30:12:124,1399,0,1,2,57047,94415,61534,-71,-537,827
05.10.2024 20:30:12:128,1400,0,1,2,57060,94410,61535,-71,-537,828
05.10.2024 20:30:12:132,1401,0,1,2,57059,94418,61543,-73,-531,822
05.10.2024 20:30:12:136,1402,0,1,2,57062,94414,61542,-70,-529,831
05.10.2024 20:30:12:140,1403,0,1,2,57054,94418,61536,-68,-543,835
05.10.2024 20:30:12:143,1404,0,1,2,57065,94407,61537,-64,-541,829
05.10.2024 20:30:12:147,1405,0,1,2,57068,94409,61537,-53,-543,834
05.10.2024 20:30:12:151,1406,0,1,2,57071,94406,61537,-65,-545,841
05.10.2024 20:30:12:155,1407,0,1,2,57074,94403,61532,-68,-550,843
05.10.2024 20:30:12:159,1408,0,1,2,57073,94405,61538,-71,-545,842
05.10.2024 20:30:12:163,1409,0,1,2,57078,94396,61534,-68,-550,836
05.10.2024 20:30:12:167,1410,0,1,2,57083,94393,61535,-66,-541,837
05.10.2024 20:30:12:171,1411,0,1,2,57077,94391,61531,-60,-544,836
05.10.2024 20:30:12:175,1412,0,1,2,57085,94391,61533,-60,-550,832
05.10.2024 20:30:12:179,1413,0,1,2,57077,94386,61529,-68,-544,831
05.10.2024 20:30:12:182,1414,0,1,2,57073,94388,61530,-66,-551,834
05.10.2024 20:30:12:186,1415,0,1,2,57081,94380,61530,-63,-550,829
05.10.2024 20:30:12:190,1416,0,1,2,57084,94377,61528,-69,-546,830
05.10.2024 20:30:12:194,1417,0,1,2,57084,94378,61528,-68,-549,833
05.10.2024 20:30:12:198,1418,0,1,2,57083,94373,61524,-70,-547,832
05.10.2024 20:30:12:202,1419,0,1,2,57083,94373,61524,-67,-547,831
05.10.2024 20:30:12:206,1420,0,1,2,57085,94372,61524,-66,-551,828
05.10.2024 20:30:12:210,1421,0,1,2,57085,94365,61525,-68,-554,832
05.10.2024 20:30:12:214,1422,0,1,2,57088,94360,61524,-64,-558,829
05.10.2024 20:30:12:218,1423,0,1,2,57085,94356,61518,-69,-549,836
05.10.2024 20:30:12:222,1424,0,1,2,57083,94356,61521,-69,-549,832
05.10.2024 20:30:12:225,1425,0,1,2,57077,94352,61518,-64,-551,830
05.10.2024 20:30:12:229,1426,0,1,2,57086,94350,61517,-68,-549,836
05.10.2024 20:30:12:233,1427,0,1,2,57079,94352,61517,-68,-554,832
05.10.2024 20:30:12:237,1428,0,1,2,57081,94355,61516,-71,-553,831
05.10.2024 20:30:12:241,1429,0,1,2,57082,94349,61517,-67,-551,832
05.10.2024 20:30:12:245,1430,0,1,2,57080,94345,61515,-70,-553,835
05.10.2024 20:30:12:249,1431,0,1,2,57083,94349,61519,-70,-550,834
05.10.2024 20:30:12:253,1432,0,1,2,57085,94348,61514,-69,-549,828
05.10.2024 20:30:12:257,1433,0,1,2,57085,94339,61512,-73,-548,831
05.10.2024 20:30:12:261,1434,0,1,2,57087,94339,61512,-71,-547,828
05.10.2024 20:30:12:264,1435,0,1,2,57083,94334,61513,-66,-546,839
05.10.2024 20:30:12:268,1436,0,1,2,57078,94337,61513,-69,-549,830
05.10.2024 20:30:12:272,1437,0,1,2,57082,94337,61514,-63,-549,832
05.10.2024 20:30:12:276,1438,0,1,2,57084,94332,61515,-67,-549,828
05.10.2024 20:30:12:280,1439,0,1,2,57083,94333,61513,-63,-546,835
05.10.2024 20:30:12:284,1440,0,1,2,57085,94335,61511,-66,-548,833
05.10.2024 20:30:12:288,1441,0,1,2,57082,94331,61510,-64,-542,833
05.10.2024 20:30:12:292,1442,0,1,2,57087,94327,61509,-66,-542,827
05.10.2024 20:30:12:296,1443,0,1,2,57084,94326,61508,-60,-544,831
05.10.2024 20:30:12:300,1444,0,1,2,57086,94326,61506,-66,-544,836
05.10.2024 20:30:12:303,1445,0,1,2,57094,94328,61505,-66,-543,836
05.10.2024 20:30:12:307,1446,0,1,2,57096,94326,61504,-67,-546,832
05.10.2024 20:30:12:311,1447,0,1,2,57099,94323,61506,-65,-547,834
05.10.2024 20:30:12:315,1448,0,1,2,57088,94320,61503,-63,-547,834
05.10.2024 20:30:12:319,1449,0,1,2,57100,94318,61505,-66,-548,831
05.10.2024 20:30:12:323,1450,0,1,2,57102,94311,61501,-66,-549,831
05.10.2024 20:30:12:327,1451,0,1,2,57103,94305,61500,-60,-548,835
05.10.2024 20:30:12:331,1452,0,1,2,57102,94306,61499,-67,-551,837
05.10.2024 20:30:12:335,1453,0,1,2,57097,94302,61498,-67,-554,840
05.10.2024 20:30:12:339,1454,0,1,2,57093,94299,61498,-71,-548,834
05.10.2024 20:30:12:343,1455,0,1,2,57096,94304,61498,-63,-552,832
05.10.2024 20:30:12:346,1456,0,1,2,57088,94292,61496,-67,-551,831
05.10.2024 20:30:12:350,1457,0,1,2,57077,94288,61496,-69,-552,828
05.10.2024 20:30:12:354,1458,0,1,2,57063,94287,61496,-68,-551,832
05.10.2024 20:30:12:358,1459,0,1,2,57056,94281,61492,-67,-553,826
05.10.2024 20:30:12:362,1460,0,1,2,57048,94275,61492,-66,-552,832
05.10.2024 20:30:12:366,1461,0,1,2,57023,94274,61489,-69,-551,831
05.10.2024 20:30:12:370,1462,0,1,2,57008,94264,61489,-72,-550,825
05.10.2024 20:30:12:374,1463,0,1,2,56994,94264,61489,-69,-552,827
05.10.2024 20:30:12:378,1464,0,1,2,56981,94256,61489,-73,-549,826
05.10.2024 20:30:12:382,1465,0,1,2,56960,94248,61484,-62,-550,829
05.10.2024 20:30:12:385,1466,0,1,2,56948,94248,61482,-72,-549,831
05.10.2024 20:30:12:389,1467,0,1,2,56932,94241,61485,-65,-553,831
05.10.2024 20:30:12:393,1468,0,1,2,56909,94238,61482,-68,-552,833
05.10.2024 20:30:12:397,1469,0,1,2,56899,94236,61483,-65,-548,833
05.10.2024 20:30:12:401,1470,0,1,2,56872,94232,61482,-62,-552,831
05.10.2024 20:30:12:405,1471,0,1,2,56861,94220,61477,-64,-549,839
05.10.2024 20:30:12:409,1472,0,1,2,56852,94218,61475,-69,-550,836
05.10.2024 20:30:12:413,1473,0,1,2,56830,94208,61477,-73,-550,835
05.10.2024 20:30:12:417,1474,0,1,2,56811,94209,61478,-70,-552,832
05.10.2024 20:30:12:421,1475,0,1,2,56799,94205,61477,-67,-555,834
05.10.2024 20:30:12:424,1476,0,1,2,56789,94201,61472,-64,-551,832
05.10.2024 20:30:12:428,1477,0,1,2,56777,94198,61475,-63,-547,827
05.10.2024 20:30:12:432,1478,0,1,2,56765,94192,61473,-62,-554,832
05.10.2024 20:30:12:436,1479,0,1,2,56755,94186,61471,-61,-547,829
05.10.2024 20:30:12:440,1480,0,1,2,56750,94188,61472,-49,-541,825
05.10.2024 20:30:12:444,1481,0,1,2,56739,94183,61470,-64,-541,828
05.10.2024 20:30:12:448,1482,0,1,2,56729,94184,61469,-75,-554,838
05.10.2024 20:30:12:452,1483,0,1,2,56722,94178,61465,-72,-554,831
05.10.2024 20:30:12:456,1484,0,1,2,56715,94177,61469,-65,-550,827
05.10.2024 20:30:12:460,1485,0,1,2,56706,94172,61469,-65,-543,834
05.10.2024 20:30:12:464,1486,0,1,2,56698,94166,61470,-64,-548,829
05.10.2024 20:30:12:467,1487,0,1,2,56698,94166,61469,-65,-548,831
05.10.2024 20:30:12:471,1488,0,1,2,56689,94161,61465,-64,-547,832
05.10.2024 20:30:12:475,1489,0,1,2,56686,94158,61462,-63,-543,830
05.10.2024 20:30:12:479,1490,0,1,2,56681,94151,61462,-62,-545,833
05.10.2024 20:30:12:483,1491,0,1,2,56683,94153,61463,-64,-545,833
05.10.2024 20:30:12:487,1492,0,1,2,56677,94148,61460,-73,-546,838
05.10.2024 20:30:12:491,1493,0,1,2,56675,94145,61462,-69,-549,833
05.10.2024 20:30:12:495,1494,0,1,2,56669,94145,61463,-67,-548,830
05.10.2024 20:30:12:499,1495,0,1,2,56670,94148,61459,-69,-545,833
05.10.2024 20:30:12:503,1496,0,1,2,56669,94137,61455,-67,-551,833
05.10.2024 20:30:12:506,1497,0,1,2,56656,94139,61456,-63,-551,827
05.10.2024 20:30:12:510,1498,0,1,2,56662,94133,61453,-65,-546,834
05.10.2024 20:30:12:514,1499,0,1,2,56652,94132,61457,-66,-555,829
05.10.2024 20:30:12:518,1500,0,1,2,56650,94128,61455,-70,-552,832
05.10.2024 20:30:12:522,1501,0,1,2,56645,94123,61453,-63,-556,826
05.10.2024 20:30:12:526,1502,0,1,2,56644,94129,61452,-65,-554,835
05.10.2024 20:30:12:530,1503,0,1,2,56635,94121,61449,-64,-554,833
05.10.2024 20:30:12:534,1504,0,1,2,56632,94120,61450,-68,-556,823
05.10.2024 20:30:12:538,1505,0,1,2,56634,94123,61451,-69,-555,829
05.10.2024 20:30:12:542,1506,0,1,2,56629,94118,61451,-63,-554,826
05.10.2024 20:30:12:545,1507,0,1,2,56621,94111,61448,-67,-546,832
05.10.2024 20:30:12:549,1508,0,1,2,56624,94112,61449,-62,-551,833
05.10.2024 20:30:12:553,1509,0,1,2,56622,94111,61446,-70,-554,823
05.10.2024 20:30:12:557,1510,0,1,2,56618,94114,61449,-67,-551,834
05.10.2024 20:30:12:561,1511,0,1,2,56613,94111,61447,-69,-547,829
05.10.2024 20:30:12:565,1512,0,1,2,56614,94112,61447,-66,-549,830
05.10.2024 20:30:12:569,1513,0,1,2,56613,94109,61449,-68,-552,831
05.10.2024 20:30:12:573,1514,0,1,2,56609,94107,61445,-70,-545,832
05.10.2024 20:30:12:577,1515,0,1,2,56604,94106,61444,-65,-546,832
05.10.2024 20:30:12:581,1516,0,1,2,56604,94099,61444,-66,-546,829
05.10.2024 20:30:12:584,1517,0,1,2,56601,94105,61445,-71,-547,824
05.10.2024 20:30:12:588,1518,0,1,2,56599,94103,61447,-67,-549,826
05.10.2024 20:30:12:592,1519,0,1,2,56599,94096,61446,-67,-548,830
05.10.2024 20:30:12:596,1520,0,1,2,56597,94096,61443,-70,-549,827
05.10.2024 20:30:12:600,1521,0,1,2,56596,94094,61445,-69,-548,834
05.10.2024 20:30:12:604,1522,0,1,2,56586,94095,61447,-72,-548,828
05.10.2024 20:30:12:608,1523,0,1,2,56588,94088,61444,-66,-550,829
05.10.2024 20:30:12:612,1524,0,1,2,56582,94092,61443,-71,-557,828
05.10.2024 20:30:12:616,1525,0,1,2,56585,94084,61441,-70,-551,830
05.10.2024 20:30:12:620,1526,0,1,2,56576,94084,61442,-66,-554,836
05.10.2024 20:30:12:624,1527,0,1,2,56571,94080,61440,-62,-553,832
05.10.2024 20:30:12:627,1528,0,1,2,56576,94079,61441,-71,-553,831
05.10.2024 20:30:12:631,1529,0,1,2,56569,94073,61442,-63,-549,835
05.10.2024 20:30:12:635,1530,0,1,2,56565,94075,61442,-66,-547,827
05.10.2024 20:30:12:639,1531,0,1,2,56565,94074,61441,-68,-550,829
05.10.2024 20:30:12:643,1532,0,1,2,56560,94071,61440,-70,-552,826
05.10.2024 20:30:12:647,1533,0,1,2,56552,94065,61435,-66,-554,829
05.10.2024 20:30:12:651,1534,0,1,2,56547,94066,61437,-72,-551,831
05.10.2024 20:30:12:655,1535,0,1,2,56548,94066,61435,-63,-547,825
05.10.2024 20:30:12:659,1536,0,1,2,56539,94060,61436,-70,-555,828
05.10.2024 20:30:12:663,1537,0,1,2,56533,94061,61440,-68,-545,831
05.10.2024 20:30:12:666,1538,0,1,2,56535,94057,61438,-67,-556,828
05.10.2024 20:30:12:670,1539,0,1,2,56531,94059,61432,-69,-550,830
05.10.2024 20:30:12:674,1540,0,1,2,56526,94052,61435,-69,-547,834
05.10.2024 20:30:12:678,1541,0,1,2,56528,94054,61435,-70,-549,828
05.10.2024 20:30:12:682,1542,0,1,2,56520,94050,61437,-62,-548,829
05.10.2024 20:30:12:686,1543,0,1,2,56516,94047,61433,-65,-549,833
05.10.2024 20:30:12:690,1544,0,1,2,56515,94043,61431,-67,-552,832
05.10.2024 20:30:12:694,1545,0,1,2,56510,94046,61429,-63,-548,830
05.10.2024 20:30:12:698,1546,0,1,2,56504,94039,61432,-67,-553,833
05.10.2024 20:30:12:702,1547,0,1,2,56505,94037,61430,-62,-544,832
05.10.2024 20:30:12:705,1548,0,1,2,56499,94029,61428,-67,-552,834
05.10.2024 20:30:12:709,1549,0,1,2,56497,94028,61427,-68,-553,831
05.10.2024 20:30:12:713,1550,0,1,2,56500,94031,61427,-66,-553,826
05.10.2024 20:30:12:717,1551,0,1,2,56497,94020,61426,-69,-553,827
05.10.2024 20:30:12:721,1552,0,1,2,56492,94021,61425,-56,-548,830
05.10.2024 20:30:12:725,1553,0,1,2,56492,94019,61423,-69,-551,826
05.10.2024 20:30:12:729,1554,0,1,2,56486,94019,61423,-65,-550,828
05.10.2024 20:30:12:733,1555,0,1,2,56487,94017,61421,-67,-548,826
05.10.2024 20:30:12:737,1556,0,1,2,56488,94015,61419,-64,-549,826
05.10.2024 20:30:12:741,1557,0,1,2,56483,94016,61419,-63,-547,830
05.10.2024 20:30:12:745,1558,0,1,2,56479,94008,61419,-65,-547,827
05.10.2024 20:30:12:748,1559,0,1,2,56480,94004,61414,-68,-547,828
05.10.2024 20:30:12:752,1560,0,1,2,56476,94008,61413,-66,-543,827
05.10.2024 20:30:12:756,1561,0,1,2,56478,94002,61413,-69,-552,830
05.10.2024 20:30:12:760,1562,0,1,2,56476,93999,61414,-64,-552,831
05.10.2024 20:30:12:764,1563,0,1,2,56474,93995,61415,-69,-552,833
05.10.2024 20:30:12:768,1564,0,1,2,56476,93993,61413,-64,-551,833
05.10.2024 20:30:12:772,1565,0,1,2,56475,93996,61410,-63,-547,833
05.10.2024 20:30:12:776,1566,0,1,2,56481,93998,61411,-67,-553,830
05.10.2024 20:30:12:780,1567,0,1,2,56477,93987,61408,-72,-561,831
05.10.2024 20:30:12:784,1568,0,1,2,56482,93992,61410,-70,-555,829
05.10.2024 20:30:12:787,1569,0,1,2,56481,93993,61409,-70,-556,837
05.10.2024 20:30:12:791,1570,0,1,2,56473,93987,61406,-69,-549,832
05.10.2024 20:30:12:795,1571,0,1,2,56478,93989,61407,-67,-550,829
05.10.2024 20:30:12:799,1572,0,1,2,56482,93986,61406,-62,-551,827
05.10.2024 20:30:12:803,1573,0,1,2,56477,93982,61408,-65,-553,829
05.10.2024 20:30:12:807,1574,0,1,2,56477,93982,61404,-70,-553,833
05.10.2024 20:30:12:811,1575,0,1,2,56480,93982,61405,-62,-550,829
05.10.2024 20:30:12:815,1576,0,1,2,56480,93981,61401,-63,-553,822
05.10.2024 20:30:12:819,1577,0,1,2,56482,93981,61403,-61,-553,827
05.10.2024 20:30:12:823,1578,0,1,2,56484,93973,61402,-71,-556,830
05.10.2024 20:30:12:826,1579,0,1,2,56491,93975,61404,-64,-550,832
05.10.2024 20:30:12:830,1580,0,1,2,56484,93970,61403,-67,-557,832
05.10.2024 20:30:12:834,1581,0,1,2,56489,93970,61400,-67,-555,827
05.10.2024 20:30:12:838,1582,0,1,2,56486,93973,61400,-67,-551,829
05.10.2024 20:30:12:842,1583,0,1,2,56484,93973,61401,-64,-550,832
05.10.2024 20:30:12:846,1584,0,1,2,56492,93970,61402,-67,-551,831
05.10.2024 20:30:12:850,1585,0,1,2,56490,93971,61403,-66,-553,829
05.10.2024 20:30:12:854,1586,0,1,2,56496,93969,61400,-66,-552,827
05.10.2024 20:30:12:858,1587,0,1,2,56493,93970,61398,-65,-549,827
05.10.2024 20:30:12:862,1588,0,1,2,56495,93972,61403,-63,-552,833
05.10.2024 20:30:12:866,1589,0,1,2,56495,93971,61399,-63,-545,830
05.10.2024 20:30:12:869,1590,0,1,2,56498,93968,61402,-65,-551,830
05.10.2024 20:30:12:873,1591,0,1,2,56507,93966,61401,-69,-548,827
05.10.2024 20:30:12:877,1592,0,1,2,56500,93967,61398,-67,-550,830
05.10.2024 20:30:12:881,1593,0,1,2,56504,93955,61394,-65,-550,826
05.10.2024 20:30:12:885,1594,0,1,2,56505,93964,61394,-64,-545,830
05.10.2024 20:30:12:889,1595,0,1,2,56503,93958,61396,-65,-554,833
05.10.2024 20:30:12:893,1596,0,1,2,56507,93958,61397,-60,-553,828
05.10.2024 20:30:12:897,1597,0,1,2,56507,93959,61395,-64,-549,828
05.10.2024 20:30:12:901,1598,0,1,2,56512,93955,61396,-61,-549,832
05.10.2024 20:30:12:905,1599,0,1,2,56517,93951,61397,-67,-555,824
05.10.2024 20:30:12:908,1600,0,1,2,56510,93953,61393,-65,-548,828
05.10.2024 20:30:12:912,1601,0,1,2,56518,93951,61392,-65,-554,831
05.10.2024 20:30:12:916,1602,0,1,2,56515,93947,61392,-65,-552,826
05.10.2024 20:30:12:920,1603,0,1,2,56518,93944,61388,-70,-554,831
05.10.2024 20:30:12:924,1604,0,1,2,56524,93939,61387,-67,-554,832
05.10.2024 20:30:12:928,1605,0,1,2,56525,93937,61388,-65,-555,831
05.10.2024 20:30:12:932,1606,0,1,2,56524,93941,61386,-69,-552,829
05.10.2024 20:30:12:936,1607,0,1,2,56526,93932,61387,-68,-551,832
05.10.2024 20:30:12:940,1608,0,1,2,56531,93929,61385,-68,-552,827
05.10.2024 20:30:12:944,1609,0,1,2,56522,93931,61381,-57,-551,828
05.10.2024 20:30:12:947,1610,0,1,2,56532,93931,61382,-64,-552,824
05.10.2024 20:30:12:951,1611,0,1,2,56530,93928,61380,-69,-547,826
05.10.2024 20:30:12:955,1612,0,1,2,56540,93925,61382,-69,-553,825
05.10.2024 20:30:12:959,1613,0,1,2,56538,93926,61382,-68,-555,828
05.10.2024 20:30:12:963,1614,0,1,2,56540,93925,61380,-61,-555,828
05.10.2024 20:30:12:967,1615,0,1,2,56541,93926,61380,-67,-549,830
05.10.2024 20:30:12:971,1616,0,1,2,56544,93920,61378,-63,-554,833
05.10.2024 20:30:12:975,1617,0,1,2,56547,93924,61379,-69,-554,831
05.10.2024 20:30:12:979,1618,0,1,2,56548,93926,61382,-62,-554,831
05.10.2024 20:30:12:983,1619,0,1,2,56549,93920,61378,-62,-550,825
05.10.2024 20:30:12:987,1620,0,1,2,56552,93919,61379,-68,-556,829
05.10.2024 20:30:12:990,1621,0,1,2,56548,93916,61378,-66,-549,832
05.10.2024 20:30:12:994,1622,0,1,2,56555,93914,61378,-65,-549,831
05.10.2024 20:30:12:998,1623,0,1,2,56550,93915,61379,-63,-549,831
05.10.2024 20:30:13:2,1624,0,1,2,56553,93908,61375,-64,-543,830
05.10.2024 20:30:13:6,1625,0,1,2,56561,93908,61378,-66,-552,836
05.10.2024 20:30:13:10,1626,0,1,2,56560,93907,61373,-68,-550,832
05.10.2024 20:30:13:14,1627,0,1,2,56559,93909,61372,-67,-547,826
05.10.2024 20:30:13:18,1628,0,1,2,56570,93904,61371,-61,-552,827
05.10.2024 20:30:13:22,1629,0,1,2,56567,93898,61374,-64,-552,829
05.10.2024 20:30:13:26,1630,0,1,2,56567,93901,61371,-63,-549,828
05.10.2024 20:30:13:29,1631,0,1,2,56568,93893,61364,-70,-554,830
05.10.2024 20:30:13:33,1632,0,1,2,56572,93894,61367,-64,-554,829
05.10.2024 20:30:13:37,1633,0,1,2,56575,93894,61365,-72,-555,828
05.10.2024 20:30:13:41,1634,0,1,2,56576,93889,61365,-66,-552,829
05.10.2024 20:30:13:45,1635,0,1,2,56573,93889,61365,-61,-556,828
05.10.2024 20:30:13:49,1636,0,1,2,56578,93886,61359,-62,-552,827
05.10.2024 20:30:13:53,1637,0,1,2,56584,93883,61357,-63,-554,829
05.10.2024 20:30:13:57,1638,0,1,2,56581,93882,61363,-62,-556,831
05.10.2024 20:30:13:61,1639,0,1,2,56587,93879,61360,-62,-555,829
05.10.2024 20:30:13:65,1640,0,1,2,56585,93878,61359,-65,-554,827
05.10.2024 20:30:13:68,1641,0,1,2,56583,93877,61360,-66,-553,829
05.10.2024 20:30:13:72,1642,0,1,2,56589,93876,61356,-65,-548,833
05.10.2024 20:30:13:76,1643,0,1,2,56596,93874,61356,-69,-546,823
05.10.2024 20:30:13:80,1644,0,1,2,56596,93874,61357,-72,-550,823
05.10.2024 20:30:13:84,1645,0,1,2,56596,93872,61358,-61,-551,824
05.10.2024 20:30:13:88,1646,0,1,2,56600,93867,61355,-64,-557,833
05.10.2024 20:30:13:92,1647,0,1,2,56601,93865,61357,-70,-557,825
05.10.2024 20:30:13:96,1648,0,1,2,56606,93864,61356,-70,-553,830
05.10.2024 20:30:13:100,1649,0,1,2,56608,93868,61355,-67,-552,825
05.10.2024 20:30:13:104,1650,0,1,2,56610,93867,61357,-68,-551,828
05.10.2024 20:30:13:108,1651,0,1,2,56616,93864,61352,-63,-555,832
05.10.2024 20:30:13:111,1652,0,1,2,56624,93863,61352,-64,-554,824
05.10.2024 20:30:13:115,1653,0,1,2,56625,93857,61354,-69,-551,830
05.10.2024 20:30:13:119,1654,0,1,2,56627,93862,61350,-60,-549,829
05.10.2024 20:30:13:123,1655,0,1,2,56630,93859,61350,-65,-549,828
05.10.2024 20:30:13:127,1656,0,1,2,56640,93853,61347,-67,-549,829
05.10.2024 20:30:13:131,1657,0,1,2,56641,93856,61348,-62,-551,826
05.10.2024 20:30:13:135,1658,0,1,2,56642,93854,61347,-64,-553,833
05.10.2024 20:30:13:139,1659,0,1,2,56639,93854,61344,-70,-553,828
05.10.2024 20:30:13:143,1660,0,1,2,56646,93848,61342,-67,-552,832
05.10.2024 20:30:13:147,1661,0,1,2,56643,93847,61342,-62,-555,830
05.10.2024 20:30:13:150,1662,0,1,2,56648,93841,61339,-65,-552,825
05.10.2024 20:30:13:154,1663,0,1,2,56657,93842,61340,-68,-553,826
05.10.2024 20:30:13:158,1664,0,1,2,56655,93838,61338,-69,-555,826
05.10.2024 20:30:13:162,1665,0,1,2,56657,93835,61334,-67,-550,831
05.10.2024 20:30:13:166,1666,0,1,2,56659,93839,61335,-66,-551,830
05.10.2024 20:30:13:170,1667,0,1,2,56660,93836,61335,-69,-548,826
05.10.2024 20:30:13:174,1668,0,1,2,56666,93833,61332,-69,-552,828
05.10.2024 20:30:13:178,1669,0,1,2,56668,93826,61331,-72,-552,827
05.10.2024 20:30:13:182,1670,0,1,2,56663,93828,61329,-65,-557,827
05.10.2024 20:30:13:186,1671,0,1,2,56665,93828,61327,-71,-557,825
05.10.2024 20:30:13:189,1672,0,1,2,56661,93818,61330,-70,-551,832
05.10.2024 20:30:13:193,1673,0,1,2,56651,93815,61328,-71,-555,827
05.10.2024 20:30:13:197,1674,0,1,2,56648,93812,61327,-68,-554,828
05.10.2024 20:30:13:201,1675,0,1,2,56634,93805,61327,-65,-562,825
05.10.2024 20:30:13:205,1676,0,1,2,56623,93803,61322,-63,-557,825
05.10.2024 20:30:13:209,1677,0,1,2,56619,93798,61319,-70,-550,828
05.10.2024 20:30:13:213,1678,0,1,2,56602,93789,61321,-66,-553,828
05.10.2024 20:30:13:217,1679,0,1,2,56588,93790,61316,-70,-560,830
05.10.2024 20:30:13:221,1680,0,1,2,56576,93779,61314,-65,-556,827
05.10.2024 20:30:13:225,1681,0,1,2,56552,93774,61314,-70,-551,826
05.10.2024 20:30:13:229,1682,0,1,2,56539,93776,61310,-62,-559,824
05.10.2024 20:30:13:232,1683,0,1,2,56524,93767,61308,-62,-559,824
05.10.2024 20:30:13:236,1684,0,1,2,56501,93762,61309,-64,-562,828
05.10.2024 20:30:13:240,1685,0,1,2,56487,93757,61306,-66,-556,829
05.10.2024 20:30:13:244,1686,0,1,2,56468,93753,61308,-64,-556,832
05.10.2024 20:30:13:248,1687,0,1,2,56456,93754,61305,-65,-559,824
05.10.2024 20:30:13:252,1688,0,1,2,56431,93751,61303,-65,-560,830
05.10.2024 20:30:13:256,1689,0,1,2,56416,93749,61303,-67,-562,825
05.10.2024 20:30:13:260,1690,0,1,2,56402,93746,61305,-67,-555,828
05.10.2024 20:30:13:264,1691,0,1,2,56390,93744,61306,-67,-557,825
05.10.2024 20:30:13:268,1692,0,1,2,56371,93745,61306,-66,-557,829
05.10.2024 20:30:13:271,1693,0,1,2,56367,93742,61301,-65,-553,831
05.10.2024 20:30:13:275,1694,0,1,2,56352,93734,61306,-69,-551,832
05.10.2024 20:30:13:279,1695,0,1,2,56347,93737,61306,-73,-553,828
05.10.2024 20:30:13:283,1696,0,1,2,56332,93734,61304,-67,-552,830
05.10.2024 20:30:13:287,1697,0,1,2,56319,93730,61305,-71,-552,829
05.10.2024 20:30:13:291,1698,0,1,2,56313,93729,61303,-66,-553,824
05.10.2024 20:30:13:295,1699,0,1,2,56307,93721,61300,-64,-552,827
05.10.2024 20:30:13:299,1700,0,1,2,56300,93726,61299,-66,-548,830
05.10.2024 20:30:13:303,1701,0,1,2,56290,93719,61302,-68,-549,830
05.10.2024 20:30:13:307,1702,0,1,2,56286,93720,61299,-65,-550,834
05.10.2024 20:30:13:310,1703,0,1,2,56286,93715,61294,-70,-548,830
05.10.2024 20:30:13:314,1704,0,1,2,56275,93715,61294,-63,-547,834
05.10.2024 20:30:13:318,1705,0,1,2,56273,93714,61295,-60,-558,826
05.10.2024 20:30:13:322,1706,0,1,2,56272,93707,61293,-60,-555,828
05.10.2024 20:30:13:326,1707,0,1,2,56267,93702,61293,-68,-553,827
05.10.2024 20:30:13:330,1708,0,1,2,56264,93699,61292,-68,-553,827
05.10.2024 20:30:13:334,1709,0,1,2,56261,93696,61290,-62,-555,826
05.10.2024 20:30:13:338,1710,0,1,2,56256,93694,61288,-62,-559,828
05.10.2024 20:30:13:342,1711,0,1,2,56255,93695,61286,-69,-555,824
05.10.2024 20:30:13:346,1712,0,1,2,56256,93688,61287,-64,-558,831
05.10.2024 20:30:13:350,1713,0,1,2,56260,93689,61283,-68,-559,828
05.10.2024 20:30:13:353,1714,0,1,2,56248,93688,61280,-64,-563,829
05.10.2024 20:30:13:357,1715,0,1,2,56250,93682,61283,-66,-554,822
05.10.2024 20:30:13:361,1716,0,1,2,56248,93683,61281,-68,-557,825
05.10.2024 20:30:13:365,1717,0,1,2,56244,93680,61280,-72,-556,830
05.10.2024 20:30:13:369,1718,0,1,2,56245,93681,61281,-67,-555,832
05.10.2024 20:30:13:373,1719,0,1,2,56245,93678,61279,-66,-555,830
05.10.2024 20:30:13:377,1720,0,1,2,56237,93676,61279,-64,-551,830
05.10.2024 20:30:13:381,1721,0,1,2,56238,93676,61279,-68,-555,831
05.10.2024 20:30:13:385,1722,0,1,2,56239,93668,61278,-67,-549,825
05.10.2024 20:30:13:389,1723,0,1,2,56243,93673,61278,-63,-551,832
05.10.2024 20:30:13:392,1724,0,1,2,56237,93669,61282,-69,-555,825
05.10.2024 20:30:13:396,1725,0,1,2,56235,93666,61275,-66,-552,830
05.10.2024 20:30:13:400,1726,0,1,2,56226,93669,61276,-65,-549,826
05.10.2024 20:30:13:404,1727,0,1,2,56237,93671,61277,-60,-554,822
05.10.2024 20:30:13:408,1728,0,1,2,56223,93665,61275,-73,-554,829
05.10.2024 20:30:13:412,1729,0,1,2,56228,93666,61274,-64,-558,827
05.10.2024 20:30:13:416,1730,0,1,2,56221,93665,61272,-69,-557,824
05.10.2024 20:30:13:420,1731,0,1,2,56223,93666,61275,-61,-553,826
05.10.2024 20:30:13:424,1732,0,1,2,56225,93665,61277,-67,-554,823
05.10.2024 20:30:13:428,1733,0,1,2,56224,93657,61270,-67,-554,823
05.10.2024 20:30:13:431,1734,0,1,2,56220,93660,61275,-66,-549,826
05.10.2024 20:30:13:435,1735,0,1,2,56216,93662,61270,-60,-556,825
05.10.2024 20:30:13:439,1736,0,1,2,56217,93663,61273,-66,-561,827
05.10.2024 20:30:13:443,1737,0,1,2,56221,93654,61273,-67,-550,828
05.10.2024 20:30:13:447,1738,0,1,2,56212,93661,61272,-66,-553,830
05.10.2024 20:30:13:451,1739,0,1,2,56215,93657,61270,-67,-552,828
05.10.2024 20:30:13:455,1740,0,1,2,56212,93650,61273,-70,-560,823
05.10.2024 20:30:13:459,1741,0,1,2,56211,93658,61270,-69,-553,824
05.10.2024 20:30:13:463,1742,0,1,2,56205,93658,61269,-67,-550,825
05.10.2024 20:30:13:467,1743,0,1,2,56198,93656,61271,-68,-552,830
05.10.2024 20:30:13:470,1744,0,1,2,56195,93655,61269,-64,-553,825
05.10.2024 20:30:13:474,1745,0,1,2,56190,93654,61271,-61,-550,824
05.10.2024 20:30:13:478,1746,0,1,2,56189,93644,61269,-65,-551,826
05.10.2024 20:30:13:482,1747,0,1,2,56186,93647,61269,-65,-552,823
05.10.2024 20:30:13:486,1748,0,1,2,56182,93651,61266,-69,-553,834
05.10.2024 20:30:13:490,1749,0,1,2,56185,93641,61263,-65,-553,828
05.10.2024 20:30:13:494,1750,0,1,2,56178,93637,61264,-64,-549,828
05.10.2024 20:30:13:498,1751,0,1,2,56176,93643,61263,-61,-557,825
05.10.2024 20:30:13:502,1752,0,1,2,56175,93642,61263,-64,-556,833
05.10.2024 20:30:13:506,1753,0,1,2,56174,93637,61259,-65,-559,831
05.10.2024 20:30:13:510,1754,0,1,2,56165,93632,61260,-62,-555,830
05.10.2024 20:30:13:513,1755,0,1,2,56166,93637,61262,-65,-552,827
05.10.2024 20:30:13:517,1756,0,1,2,56165,93631,61264,-66,-556,826
05.10.2024 20:30:13:521,1757,0,1,2,56149,93629,61257,-67,-559,823
05.10.2024 20:30:13:525,1758,0,1,2,56150,93627,61257,-67,-559,823
05.10.2024 20:30:13:529,1759,0,1,2,56148,93621,61261,-65,-556,824
05.10.2024 20:30:13:533,1760,0,1,2,56147,93618,61256,-64,-553,825
05.10.2024 20:30:13:537,1761,0,1,2,56145,93620,61256,-66,-549,825
05.10.2024 20:30:13:541,1762,0,1,2,56131,93624,61259,-67,-553,824
05.10.2024 20:30:13:545,1763,0,1,2,56130,93619,61253,-63,-556,827
05.10.2024 20:30:13:549,1764,0,1,2,56131,93615,61255,-69,-556,823
05.10.2024 20:30:13:552,1765,0,1,2,56134,93613,61253,-67,-556,828
05.10.2024 20:30:13:556,1766,0,1,2,56130,93611,61249,-65,-554,827
05.10.2024 20:30:13:560,1767,0,1,2,56132,93613,61253,-70,-555,827
05.10.2024 20:30:13:564,1768,0,1,2,56130,93610,61251,-62,-557,834
05.10.2024 20:30:13:568,1769,0,1,2,56135,93609,61247,-70,-558,830
05.10.2024 20:30:13:572,1770,0,1,2,56125,93607,61249,-64,-556,831
05.10.2024 20:30:13:576,1771,0,1,2,56122,93601,61246,-64,-556,826
05.10.2024 20:30:13:580,1772,0,1,2,56125,93605,61248,-64,-554,826
05.10.2024 20:30:13:584,1773,0,1,2,56123,93599,61246,-71,-556,823
05.10.2024 20:30:13:588,1774,0,1,2,56123,93597,61247,-65,-561,823
05.10.2024 20:30:13:591,1775,0,1,2,56125,93599,61248,-64,-550,831
05.10.2024 20:30:13:595,1776,0,1,2,56118,93597,61248,-65,-550,827
05.10.2024 20:30:13:599,1777,0,1,2,56122,93600,61242,-69,-556,826
05.10.2024 20:30:13:603,1778,0,1,2,56120,93592,61246,-67,-556,821
05.10.2024 20:30:13:607,1779,0,1,2,56117,93597,61242,-68,-561,826
05.10.2024 20:30:13:611,1780,0,1,2,56122,93592,61245,-68,-559,826
05.10.2024 20:30:13:615,1781,0,1,2,56127,93594,61243,-68,-557,826
05.10.2024 20:30:13:619,1782,0,1,2,56122,93591,61243,-69,-555,830
05.10.2024 20:30:13:623,1783,0,1,2,56128,93587,61240,-69,-555,830
05.10.2024 20:30:13:627,1784,0,1,2,56131,93588,61240,-68,-559,826
05.10.2024 20:30:13:631,1785,0,1,2,56135,93586,61239,-61,-558,829
05.10.2024 20:30:13:634,1786,0,1,2,56131,93580,61238,-66,-555,835
05.10.2024 20:30:13:638,1787,0,1,2,56135,93580,61236,-68,-561,832
05.10.2024 20:30:13:642,1788,0,1,2,56136,93578,61235,-65,-557,832
05.10.2024 20:30:13:646,1789,0,1,2,56138,93581,61235,-64,-554,822
05.10.2024 20:30:13:650,1790,0,1,2,56144,93579,61236,-65,-561,825
05.10.2024 20:30:13:654,1791,0,1,2,56142,93582,61238,-65,-554,827
05.10.2024 20:30:13:658,1792,0,1,2,56141,93580,61236,-64,-553,827
05.10.2024 20:30:13:662,1793,0,1,2,56148,93577,61234,-63,-555,828
05.10.2024 20:30:13:666,1794,0,1,2,56153,93582,61238,-65,-558,825
05.10.2024 20:30:13:670,1795,0,1,2,56151,93579,61234,-67,-557,826
05.10.2024 20:30:13:673,1796,0,1,2,56152,93578,61232,-66,-552,823
05.10.2024 20:30:13:677,1797,0,1,2,56153,93574,61234,-69,-554,828
05.10.2024 20:30:13:681,1798,0,1,2,56162,93581,61235,-68,-554,830
05.10.2024 20:30:13:685,1799,0,1,2,56157,93576,61238,-69,-553,830
05.10.2024 20:30:13:689,1800,0,1,2,56162,93578,61230,-62,-556,824
05.10.2024 20:30:13:693,1801,0,1,2,56165,93578,61237,-68,-552,830
05.10.2024 20:30:13:697,1802,0,1,2,56164,93579,61234,-66,-552,828
05.10.2024 20:30:13:701,1803,0,1,2,56166,93579,61233,-67,-557,825
05.10.2024 20:30:13:705,1804,0,1,2,56170,93576,61235,-66,-558,831
05.10.2024 20:30:13:709,1805,0,1,2,56177,93575,61234,-68,-554,825
05.10.2024 20:30:13:712,1806,0,1,2,56178,93571,61232,-65,-557,827
05.10.2024 20:30:13:716,1807,0,1,2,56178,93576,61233,-64,-553,822
05.10.2024 20:30:13:720,1808,0,1,2,56182,93576,61233,-64,-553,822
05.10.2024 20:30:13:724,1809,0,1,2,56188,93578,61234,-63,-558,823
05.10.2024 20:30:13:728,1810,0,1,2,56188,93575,61233,-66,-551,829
05.10.2024 20:30:13:732,1811,0,1,2,56192,93573,61233,-62,-555,829
05.10.2024 20:30:13:736,1812,0,1,2,56195,93565,61233,-64,-554,829
05.10.2024 20:30:13:740,1813,0,1,2,56200,93569,61231,-67,-555,824
05.10.2024 20:30:13:744,1814,0,1,2,56201,93571,61232,-68,-554,825
05.10.2024 20:30:13:748,1815,0,1,2,56202,93569,61228,-63,-554,829
05.10.2024 20:30:13:752,1816,0,1,2,56206,93567,61229,-67,-554,828
05.10.2024 20:30:13:755,1817,0,1,2,56210,93569,61228,-68,-550,830
05.10.2024 20:30:13:759,1818,0,1,2,56209,93562,61227,-70,-559,827
05.10.2024 20:30:13:763,1819,0,1,2,56213,93559,61226,-70,-559,825
05.10.2024 20:30:13:767,1820,0,1,2,56210,93560,61227,-71,-553,826
05.10.2024 20:30:13:771,1821,0,1,2,56216,93550,61226,-71,-558,823
05.10.2024 20:30:13:775,1822,0,1,2,56219,93550,61225,-71,-559,828
05.10.2024 20:30:13:779,1823,0,1,2,56223,93554,61222,-73,-554,828
05.10.2024 20:30:13:783,1824,0,1,2,56226,93551,61220,-65,-560,826
05.10.2024 20:30:13:787,1825,0,1,2,56223,93551,61220,-69,-553,830
05.10.2024 20:30:13:791,1826,0,1,2,56224,93545,61220,-67,-557,831
05.10.2024 20:30:13:794,1827,0,1,2,56234,93544,61218,-68,-558,826
05.10.2024 20:30:13:798,1828,0,1,2,56235,93546,61217,-65,-555,831
05.10.2024 20:30:13:802,1829,0,1,2,56242,93543,61217,-67,-556,832
05.10.2024 20:30:13:806,1830,0,1,2,56241,93541,61216,-66,-553,822
05.10.2024 20:30:13:810,1831,0,1,2,56244,93543,61217,-62,-555,824
05.10.2024 20:30:13:814,1832,0,1,2,56244,93543,61216,-64,-559,826
05.10.2024 20:30:13:818,1833,0,1,2,56248,93543,61215,-64,-559,826
