Timestamp[Day.Month.Year Hour:Minute:Second:Milisecond],sampleNum,tagLEDC1_PD1,tagLEDC2_PD1,tagLEDC3_PD1,LED1_PPG1,LED2_PPG1,LED3_PPG1,ACC_X[mg],ACC_Y[mg],ACC_Z[mg]
05.10.2024 20:25:44:18,1,0,1,2,51080,111925,80482,-58,-243,968
05.10.2024 20:25:44:22,2,0,1,2,51085,111913,80479,-61,-247,964
05.10.2024 20:25:44:26,3,0,1,2,51088,111893,80471,-56,-253,967
05.10.2024 20:25:44:30,4,0,1,2,51089,111885,80465,-61,-252,969
05.10.2024 20:25:44:34,5,0,1,2,51081,111872,80462,-57,-253,972
05.10.2024 20:25:44:38,6,0,1,2,51087,111857,80463,-57,-257,968
05.10.2024 20:25:44:42,7,0,1,2,51088,111844,80459,-64,-249,964
05.10.2024 20:25:44:46,8,0,1,2,51090,111834,80456,-57,-252,968
05.10.2024 20:25:44:50,9,0,1,2,51090,111825,80455,-59,-254,969
05.10.2024 20:25:44:54,10,0,1,2,51089,111813,80455,-55,-253,969
05.10.2024 20:25:44:57,11,0,1,2,51085,111813,80452,-56,-254,966
05.10.2024 20:25:44:61,12,0,1,2,51091,111804,80455,-56,-249,960
05.10.2024 20:25:44:65,13,0,1,2,51089,111793,80451,-59,-249,962
05.10.2024 20:25:44:69,14,0,1,2,51089,111791,80452,-57,-248,967
05.10.2024 20:25:44:73,15,0,1,2,51091,111782,80448,-62,-247,968
05.10.2024 20:25:44:77,16,0,1,2,51088,111773,80447,-62,-242,966
05.10.2024 20:25:44:81,17,0,1,2,51089,111771,80448,-60,-248,962
05.10.2024 20:25:44:85,18,0,1,2,51089,111764,80449,-60,-240,965
05.10.2024 20:25:44:89,19,0,1,2,51088,111756,80447,-65,-243,962
05.10.2024 20:25:44:93,20,0,1,2,51087,111748,80448,-63,-241,970
05.10.2024 20:25:44:96,21,0,1,2,51090,111750,80449,-62,-244,969
05.10.2024 20:25:44:100,22,0,1,2,51089,111738,80443,-57,-246,974
05.10.2024 20:25:44:104,23,0,1,2,51086,111734,80440,-51,-246,962
05.10.2024 20:25:44:108,24,0,1,2,51092,111724,80438,-54,-245,969
05.10.2024 20:25:44:112,25,0,1,2,51088,111717,80439,-61,-247,963
05.10.2024 20:25:44:116,26,0,1,2,51086,111711,80431,-57,-244,967
05.10.2024 20:25:44:120,27,0,1,2,51090,111702,80427,-65,-249,967
05.10.2024 20:25:44:124,28,0,1,2,51089,111698,80421,-54,-251,963
05.10.2024 20:25:44:128,29,0,1,2,51086,111690,80423,-55,-251,961
05.10.2024 20:25:44:132,30,0,1,2,51089,111683,80421,-55,-252,967
05.10.2024 20:25:44:135,31,0,1,2,51089,111681,80419,-56,-244,963
05.10.2024 20:25:44:139,32,0,1,2,51092,111670,80417,-60,-247,965
05.10.2024 20:25:44:143,33,0,1,2,51088,111662,80419,-60,-247,966
05.10.2024 20:25:44:147,34,0,1,2,51085,111657,80420,-59,-253,970
05.10.2024 20:25:44:151,35,0,1,2,51089,111659,80414,-58,-250,962
05.10.2024 20:25:44:155,36,0,1,2,51085,111650,80409,-59,-245,969
05.10.2024 20:25:44:159,37,0,1,2,51082,111647,80406,-54,-248,965
05.10.2024 20:25:44:163,38,0,1,2,51084,111644,80411,-58,-248,961
05.10.2024 20:25:44:167,39,0,1,2,51083,111637,80409,-53,-252,971
05.10.2024 20:25:44:171,40,0,1,2,51079,111629,80405,-57,-246,964
05.10.2024 20:25:44:174,41,0,1,2,51081,111626,80406,-54,-250,959
05.10.2024 20:25:44:178,42,0,1,2,51080,111626,80405,-54,-245,969
05.10.2024 20:25:44:182,43,0,1,2,51082,111615,80400,-58,-249,970
05.10.2024 20:25:44:186,44,0,1,2,51086,111623,80405,-55,-247,968
05.10.2024 20:25:44:190,45,0,1,2,51081,111619,80401,-57,-247,967
05.10.2024 20:25:44:194,46,0,1,2,51079,111614,80401,-58,-250,965
05.10.2024 20:25:44:198,47,0,1,2,51080,111606,80404,-49,-248,967
05.10.2024 20:25:44:202,48,0,1,2,51082,111606,80396,-59,-250,962
05.10.2024 20:25:44:206,49,0,1,2,51086,111597,80398,-56,-249,966
05.10.2024 20:25:44:210,50,0,1,2,51080,111602,80400,-62,-253,966
05.10.2024 20:25:44:214,51,0,1,2,51084,111598,80397,-54,-249,968
05.10.2024 20:25:44:217,52,0,1,2,51089,111596,80395,-57,-244,968
05.10.2024 20:25:44:221,53,0,1,2,51087,111597,80400,-60,-244,963
05.10.2024 20:25:44:225,54,0,1,2,51083,111593,80402,-61,-246,964
05.10.2024 20:25:44:229,55,0,1,2,51086,111591,80401,-63,-242,968
05.10.2024 20:25:44:233,56,0,1,2,51086,111593,80403,-59,-242,969
05.10.2024 20:25:44:237,57,0,1,2,51094,111582,80397,-56,-244,965
05.10.2024 20:25:44:241,58,0,1,2,51089,111584,80394,-58,-244,972
05.10.2024 20:25:44:245,59,0,1,2,51093,111579,80394,-60,-254,967
05.10.2024 20:25:44:249,60,0,1,2,51087,111574,80398,-61,-248,969
05.10.2024 20:25:44:253,61,0,1,2,51094,111569,80395,-61,-248,966
05.10.2024 20:25:44:256,62,0,1,2,51093,111571,80392,0,-251,968
05.10.2024 20:25:44:260,63,0,1,2,51093,111564,80394,-60,-244,967
05.10.2024 20:25:44:264,64,0,1,2,51095,111562,80391,-50,-249,964
05.10.2024 20:25:44:268,65,0,1,2,51101,111556,80384,-64,-253,963
05.10.2024 20:25:44:272,66,0,1,2,51097,111547,80380,-57,-250,967
05.10.2024 20:25:44:276,67,0,1,2,51101,111547,80385,-57,-247,962
05.10.2024 20:25:44:280,68,0,1,2,51110,111545,80382,-54,-252,967
05.10.2024 20:25:44:284,69,0,1,2,51104,111539,80384,-57,-251,964
05.10.2024 20:25:44:288,70,0,1,2,51109,111540,80377,-67,-247,965
05.10.2024 20:25:44:292,71,0,1,2,51113,111535,80377,-54,-244,966
05.10.2024 20:25:44:295,72,0,1,2,51108,111538,80382,-57,-248,964
05.10.2024 20:25:44:299,73,0,1,2,51112,111529,80375,-54,-246,970
05.10.2024 20:25:44:303,74,0,1,2,51117,111528,80374,-57,-249,972
05.10.2024 20:25:44:307,75,0,1,2,51119,111529,80377,-55,-249,966
05.10.2024 20:25:44:311,76,0,1,2,51119,111526,80373,-58,-244,967
05.10.2024 20:25:44:315,77,0,1,2,51125,111520,80371,-54,-248,966
05.10.2024 20:25:44:319,78,0,1,2,51127,111516,80366,-61,-244,965
05.10.2024 20:25:44:323,79,0,1,2,51131,111511,80370,-59,-245,966
05.10.2024 20:25:44:327,80,0,1,2,51124,111512,80369,-60,-250,968
05.10.2024 20:25:44:331,81,0,1,2,51131,111511,80366,-58,-241,966
05.10.2024 20:25:44:334,82,0,1,2,51135,111508,80361,-64,-248,960
05.10.2024 20:25:44:338,83,0,1,2,51134,111502,80364,-60,-250,966
05.10.2024 20:25:44:342,84,0,1,2,51138,111505,80359,-59,-251,973
05.10.2024 20:25:44:346,85,0,1,2,51143,111495,80359,-58,-247,971
05.10.2024 20:25:44:350,86,0,1,2,51142,111495,80356,-54,-244,969
05.10.2024 20:25:44:354,87,0,1,2,51147,111497,80355,-56,-253,967
05.10.2024 20:25:44:358,88,0,1,2,51149,111492,80361,-53,-247,967
05.10.2024 20:25:44:362,89,0,1,2,51147,111489,80354,-55,-255,966
05.10.2024 20:25:44:366,90,0,1,2,51161,111488,80354,-55,-251,969
05.10.2024 20:25:44:370,91,0,1,2,51164,111484,80354,-59,-248,966
05.10.2024 20:25:44:374,92,0,1,2,51160,111480,80350,-53,-248,964
05.10.2024 20:25:44:377,93,0,1,2,51163,111482,80348,-58,-255,964
05.10.2024 20:25:44:381,94,0,1,2,51167,111478,80348,-55,-245,966
05.10.2024 20:25:44:385,95,0,1,2,51173,111476,80345,-57,-250,969
05.10.2024 20:25:44:389,96,0,1,2,51173,111472,80348,-58,-245,963
05.10.2024 20:25:44:393,97,0,1,2,51172,111473,80347,-54,-251,968
05.10.2024 20:25:44:397,98,0,1,2,51182,111465,80348,-54,-255,970
05.10.2024 20:25:44:401,99,0,1,2,51180,111471,80349,-52,-250,961
05.10.2024 20:25:44:405,100,0,1,2,51185,111469,80342,-55,-248,965
05.10.2024 20:25:44:409,101,0,1,2,51193,111463,80346,-50,-248,974
05.10.2024 20:25:44:413,102,0,1,2,51196,111469,80347,-55,-250,964
05.10.2024 20:25:44:416,103,0,1,2,51195,111462,80344,-57,-237,971
05.10.2024 20:25:44:420,104,0,1,2,51195,111457,80345,-54,-245,963
05.10.2024 20:25:44:424,105,0,1,2,51204,111462,80348,-59,-248,967
05.10.2024 20:25:44:428,106,0,1,2,51205,111461,80341,-55,-246,968
05.10.2024 20:25:44:432,107,0,1,2,51203,111459,80343,-57,-246,967
05.10.2024 20:25:44:436,108,0,1,2,51209,111454,80338,-57,-247,964
05.10.2024 20:25:44:440,109,0,1,2,51209,111451,80344,-65,-251,967
05.10.2024 20:25:44:444,110,0,1,2,51217,111446,80343,-57,-247,970
05.10.2024 20:25:44:448,111,0,1,2,51217,111450,80338,-58,-247,968
05.10.2024 20:25:44:452,112,0,1,2,51215,111448,80336,-61,-250,959
05.10.2024 20:25:44:455,113,0,1,2,51218,111442,80337,-56,-188,971
05.10.2024 20:25:44:459,114,0,1,2,51227,111443,80337,-56,-248,969
05.10.2024 20:25:44:463,115,0,1,2,51219,111440,80333,-57,-251,965
05.10.2024 20:25:44:467,116,0,1,2,51230,111442,80330,-61,-249,966
05.10.2024 20:25:44:471,117,0,1,2,51232,111435,80332,-56,-244,964
05.10.2024 20:25:44:475,118,0,1,2,51230,111437,80330,-62,-244,962
05.10.2024 20:25:44:479,119,0,1,2,51233,111433,80333,-57,-241,965
05.10.2024 20:25:44:483,120,0,1,2,51245,111436,80328,-61,-241,964
05.10.2024 20:25:44:487,121,0,1,2,51239,111432,80325,-58,-235,964
05.10.2024 20:25:44:491,122,0,1,2,51236,111425,80318,-63,-239,964
05.10.2024 20:25:44:494,123,0,1,2,51242,111415,80317,-59,-234,968
05.10.2024 20:25:44:498,124,0,1,2,51250,111413,80320,-57,-248,967
05.10.2024 20:25:44:502,125,0,1,2,51250,111406,80313,-56,-243,966
05.10.2024 20:25:44:506,126,0,1,2,51249,111398,80298,-55,-244,967
05.10.2024 20:25:44:510,127,0,1,2,51255,111396,80294,-55,-252,970
05.10.2024 20:25:44:514,128,0,1,2,51261,111387,80292,-55,-245,958
05.10.2024 20:25:44:518,129,0,1,2,51263,111378,80287,-55,-244,967
05.10.2024 20:25:44:522,130,0,1,2,51265,111372,80288,-58,-255,968
05.10.2024 20:25:44:526,131,0,1,2,51264,111363,80278,-57,-260,965
05.10.2024 20:25:44:530,132,0,1,2,51269,111359,80268,-54,-260,973
05.10.2024 20:25:44:534,133,0,1,2,51268,111353,80266,-55,-259,962
05.10.2024 20:25:44:537,134,0,1,2,51262,111347,80269,-57,-254,964
05.10.2024 20:25:44:541,135,0,1,2,51264,111343,80263,-57,-252,962
05.10.2024 20:25:44:545,136,0,1,2,51262,111339,80262,-58,-253,965
05.10.2024 20:25:44:549,137,0,1,2,51259,111333,80259,-55,-254,968
05.10.2024 20:25:44:553,138,0,1,2,51260,111328,80251,-56,-254,969
05.10.2024 20:25:44:557,139,0,1,2,51246,111323,80245,-56,-251,972
05.10.2024 20:25:44:561,140,0,1,2,51250,111325,80248,-56,-251,966
05.10.2024 20:25:44:565,141,0,1,2,51245,111322,80252,-57,-247,970
05.10.2024 20:25:44:569,142,0,1,2,51241,111319,80251,-58,-246,967
05.10.2024 20:25:44:573,143,0,1,2,51235,111317,80247,-56,-246,970
05.10.2024 20:25:44:576,144,0,1,2,51230,111315,80244,-60,-244,966
05.10.2024 20:25:44:580,145,0,1,2,51229,111311,80241,-59,-247,969
05.10.2024 20:25:44:584,146,0,1,2,51223,111301,80240,-56,-251,966
05.10.2024 20:25:44:588,147,0,1,2,51215,111300,80242,-58,-311,967
05.10.2024 20:25:44:592,148,0,1,2,51210,111300,80239,-55,-249,968
05.10.2024 20:25:44:596,149,0,1,2,51204,111294,80241,-61,-249,968
05.10.2024 20:25:44:600,150,0,1,2,51202,111288,80240,-64,-244,965
05.10.2024 20:25:44:604,151,0,1,2,51196,111286,80236,-55,-245,963
05.10.2024 20:25:44:608,152,0,1,2,51190,111281,80235,-60,-244,969
05.10.2024 20:25:44:612,153,0,1,2,51193,111281,80223,-62,-251,970
05.10.2024 20:25:44:615,154,0,1,2,51182,111264,80218,-57,-249,963
05.10.2024 20:25:44:619,155,0,1,2,51185,111261,80215,-56,-249,968
05.10.2024 20:25:44:623,156,0,1,2,51177,111250,80205,-55,-245,960
05.10.2024 20:25:44:627,157,0,1,2,51185,111241,80201,-60,-244,965
05.10.2024 20:25:44:631,158,0,1,2,51178,111226,80184,-52,-241,964
05.10.2024 20:25:44:635,159,0,1,2,51178,111213,80174,-59,-239,966
05.10.2024 20:25:44:639,160,0,1,2,51179,111196,80158,-55,-242,967
05.10.2024 20:25:44:643,161,0,1,2,51179,111177,80135,-52,-244,968
05.10.2024 20:25:44:647,162,0,1,2,51187,111147,80107,-57,-234,971
05.10.2024 20:25:44:651,163,0,1,2,51175,111100,80063,-59,-243,966
05.10.2024 20:25:44:654,164,0,1,2,51189,111048,80004,-60,-239,965
05.10.2024 20:25:44:658,165,0,1,2,51200,110990,79944,-60,-244,959
05.10.2024 20:25:44:662,166,0,1,2,51217,110931,79895,-56,-244,961
05.10.2024 20:25:44:666,167,0,1,2,51241,110886,79849,-60,-244,967
05.10.2024 20:25:44:670,168,0,1,2,51274,110840,79810,-51,-244,963
05.10.2024 20:25:44:674,169,0,1,2,51303,110797,79772,-51,-244,972
05.10.2024 20:25:44:678,170,0,1,2,51337,110753,79724,-55,-234,969
05.10.2024 20:25:44:682,171,0,1,2,51363,110705,79677,-58,-244,966
05.10.2024 20:25:44:686,172,0,1,2,51394,110656,79635,-59,-243,965
05.10.2024 20:25:44:690,173,0,1,2,51416,110613,79593,-54,-254,965
05.10.2024 20:25:44:694,174,0,1,2,51444,110582,79564,-52,-254,971
05.10.2024 20:25:44:697,175,0,1,2,51472,110554,79544,-52,-248,971
05.10.2024 20:25:44:701,176,0,1,2,51501,110530,79515,-55,-249,965
05.10.2024 20:25:44:705,177,0,1,2,51532,110515,79499,-62,-252,972
05.10.2024 20:25:44:709,178,0,1,2,51563,110491,79480,-59,-252,977
05.10.2024 20:25:44:713,179,0,1,2,51601,110474,79472,-61,-259,971
05.10.2024 20:25:44:717,180,0,1,2,51633,110478,79475,-55,-275,944
05.10.2024 20:25:44:721,181,0,1,2,51661,110499,79502,-53,-275,971
05.10.2024 20:25:44:725,182,0,1,2,51673,110547,79542,-54,-244,982
05.10.2024 20:25:44:729,183,0,1,2,51674,110586,79566,-48,-214,978
05.10.2024 20:25:44:733,184,0,1,2,51689,110619,79584,-55,-207,975
05.10.2024 20:25:44:736,185,0,1,2,51698,110643,79595,-59,-200,972
05.10.2024 20:25:44:740,186,0,1,2,51713,110653,79598,-59,-201,970
05.10.2024 20:25:44:744,187,0,1,2,51730,110650,79591,-51,-205,970
05.10.2024 20:25:44:748,188,0,1,2,51744,110643,79584,-44,-229,964
05.10.2024 20:25:44:752,189,0,1,2,51760,110642,79579,-40,-241,960
05.10.2024 20:25:44:756,190,0,1,2,51772,110641,79572,-52,-266,968
05.10.2024 20:25:44:760,191,0,1,2,51791,110650,79580,-56,-276,969
05.10.2024 20:25:44:764,192,0,1,2,51795,110671,79605,-57,-268,961
05.10.2024 20:25:44:768,193,0,1,2,51797,110702,79626,-55,-263,976
05.10.2024 20:25:44:772,194,0,1,2,51806,110742,79659,-43,-250,980
05.10.2024 20:25:44:775,195,0,1,2,51798,110779,79678,-44,-244,985
05.10.2024 20:25:44:779,196,0,1,2,51789,110808,79699,-46,-250,983
05.10.2024 20:25:44:783,197,0,1,2,51778,110845,79717,-48,-247,980
05.10.2024 20:25:44:787,198,0,1,2,51772,110869,79735,-51,-312,971
05.10.2024 20:25:44:791,199,0,1,2,51765,110897,79756,-52,-259,967
05.10.2024 20:25:44:795,200,0,1,2,51754,110931,79776,-50,-263,968
05.10.2024 20:25:44:799,201,0,1,2,51740,110973,79804,-52,-264,957
05.10.2024 20:25:44:803,202,0,1,2,51728,111012,79833,-49,-265,967
05.10.2024 20:25:44:807,203,0,1,2,51716,111055,79857,-47,-260,962
05.10.2024 20:25:44:811,204,0,1,2,51702,111102,79881,-53,-238,973
05.10.2024 20:25:44:814,205,0,1,2,51699,111146,79908,-56,-203,967
05.10.2024 20:25:44:818,206,0,1,2,51683,111170,79923,-57,-203,959
05.10.2024 20:25:44:822,207,0,1,2,51670,111195,79931,-51,-180,962
05.10.2024 20:25:44:826,208,0,1,2,51657,111210,79931,-55,-175,962
05.10.2024 20:25:44:830,209,0,1,2,51649,111214,79926,-43,-188,963
05.10.2024 20:25:44:834,210,0,1,2,51643,111202,79907,-48,-212,965
05.10.2024 20:25:44:838,211,0,1,2,51629,111194,79894,-44,-223,974
05.10.2024 20:25:44:842,212,0,1,2,51621,111171,79879,-49,-251,966
05.10.2024 20:25:44:846,213,0,1,2,51619,111164,79864,-53,-260,965
05.10.2024 20:25:44:850,214,0,1,2,51608,111157,79855,-51,-256,972
05.10.2024 20:25:44:853,215,0,1,2,51608,111172,79855,-50,-248,969
05.10.2024 20:25:44:857,216,0,1,2,51606,111174,79851,-49,-223,967
05.10.2024 20:25:44:861,217,0,1,2,51601,111178,79843,-54,-225,959
05.10.2024 20:25:44:865,218,0,1,2,51599,111181,79838,-45,-222,961
05.10.2024 20:25:44:869,219,0,1,2,51588,111176,79834,-50,-228,966
05.10.2024 20:25:44:873,220,0,1,2,51581,111173,79821,-49,-223,964
05.10.2024 20:25:44:877,221,0,1,2,51582,111175,79816,-56,-228,970
05.10.2024 20:25:44:881,222,0,1,2,51570,111169,79814,-49,-232,976
05.10.2024 20:25:44:885,223,0,1,2,51569,111176,79807,-40,-237,974
05.10.2024 20:25:44:889,224,0,1,2,51561,111173,79806,-46,-239,970
05.10.2024 20:25:44:893,225,0,1,2,51553,111181,79805,-46,-231,971
05.10.2024 20:25:44:896,226,0,1,2,51548,111187,79805,-54,-227,972
05.10.2024 20:25:44:900,227,0,1,2,51535,111191,79806,-54,-221,968
05.10.2024 20:25:44:904,228,0,1,2,51524,111202,79804,-51,-226,968
05.10.2024 20:25:44:908,229,0,1,2,51523,111202,79800,-46,-223,973
05.10.2024 20:25:44:912,230,0,1,2,51519,111209,79799,-52,-223,973
05.10.2024 20:25:44:916,231,0,1,2,51510,111208,79795,-52,-231,975
05.10.2024 20:25:44:920,232,0,1,2,51501,111215,79795,-55,-233,967
05.10.2024 20:25:44:924,233,0,1,2,51491,111221,79798,-59,-227,974
05.10.2024 20:25:44:928,234,0,1,2,51490,111223,79796,-52,-226,970
05.10.2024 20:25:44:932,235,0,1,2,51471,111233,79797,-55,-226,970
05.10.2024 20:25:44:935,236,0,1,2,51462,111245,79809,-50,-222,970
05.10.2024 20:25:44:939,237,0,1,2,51457,111251,79808,-51,-218,970
05.10.2024 20:25:44:943,238,0,1,2,51451,111258,79812,-53,-216,971
05.10.2024 20:25:44:947,239,0,1,2,51435,111262,79805,-55,-218,974
05.10.2024 20:25:44:951,240,0,1,2,51425,111263,79801,-53,-211,971
05.10.2024 20:25:44:955,241,0,1,2,51414,111263,79799,-52,-214,972
05.10.2024 20:25:44:959,242,0,1,2,51407,111258,79791,-48,-220,972
05.10.2024 20:25:44:963,243,0,1,2,51389,111255,79785,-54,-218,972
05.10.2024 20:25:44:967,244,0,1,2,51380,111250,79776,-55,-219,976
05.10.2024 20:25:44:971,245,0,1,2,51368,111244,79773,-51,-220,968
05.10.2024 20:25:44:974,246,0,1,2,51359,111238,79760,-46,-224,963
05.10.2024 20:25:44:978,247,0,1,2,51349,111236,79753,-46,-227,964
05.10.2024 20:25:44:982,248,0,1,2,51334,111230,79739,-46,-231,966
05.10.2024 20:25:44:986,249,0,1,2,51322,111224,79731,-55,-232,970
05.10.2024 20:25:44:990,250,0,1,2,51305,111218,79723,-52,-236,968
05.10.2024 20:25:44:994,251,0,1,2,51301,111214,79721,-54,-233,970
05.10.2024 20:25:44:998,252,0,1,2,51288,111212,79712,-54,-232,966
05.10.2024 20:25:45:2,253,0,1,2,51271,111205,79703,-52,-228,967
05.10.2024 20:25:45:6,254,0,1,2,51261,111206,79697,-50,-231,969
05.10.2024 20:25:45:10,255,0,1,2,51243,111202,79691,-54,-238,968
05.10.2024 20:25:45:13,256,0,1,2,51230,111194,79685,-53,-230,964
05.10.2024 20:25:45:17,257,0,1,2,51217,111191,79682,-52,-229,971
05.10.2024 20:25:45:21,258,0,1,2,51208,111192,79672,-51,-225,966
05.10.2024 20:25:45:25,259,0,1,2,51198,111187,79665,-49,-226,964
05.10.2024 20:25:45:29,260,0,1,2,51189,111176,79658,-52,-230,972
05.10.2024 20:25:45:33,261,0,1,2,51179,111157,79652,-53,-237,970
05.10.2024 20:25:45:37,262,0,1,2,51173,111150,79644,-52,-236,972
05.10.2024 20:25:45:41,263,0,1,2,51160,111148,79639,-52,-235,971
05.10.2024 20:25:45:45,264,0,1,2,51154,111144,79632,-53,-233,978
05.10.2024 20:25:45:49,265,0,1,2,51137,111134,79622,-49,-240,969
05.10.2024 20:25:45:53,266,0,1,2,51126,111128,79611,-48,-244,974
05.10.2024 20:25:45:56,267,0,1,2,51113,111123,79611,-56,-238,974
05.10.2024 20:25:45:60,268,0,1,2,51109,111118,79597,-51,-232,970
05.10.2024 20:25:45:64,269,0,1,2,51092,111114,79596,-47,-234,969
05.10.2024 20:25:45:68,270,0,1,2,51085,111112,79588,-49,-237,964
05.10.2024 20:25:45:72,271,0,1,2,51072,111104,79586,-59,-234,976
05.10.2024 20:25:45:76,272,0,1,2,51057,111100,79567,-60,-233,975
05.10.2024 20:25:45:80,273,0,1,2,51041,111094,79566,-53,-234,968
05.10.2024 20:25:45:84,274,0,1,2,51036,111093,79555,-56,-243,965
05.10.2024 20:25:45:88,275,0,1,2,51024,111089,79544,-56,-244,964
05.10.2024 20:25:45:92,276,0,1,2,51012,111083,79534,-56,-239,972
05.10.2024 20:25:45:95,277,0,1,2,51010,111077,79529,-54,-247,969
05.10.2024 20:25:45:99,278,0,1,2,51001,111076,79524,-61,-244,970
05.10.2024 20:25:45:103,279,0,1,2,50994,111068,79519,-56,-242,971
05.10.2024 20:25:45:107,280,0,1,2,50979,111061,79514,-56,-245,966
05.10.2024 20:25:45:111,281,0,1,2,50981,111065,79510,-56,-241,967
05.10.2024 20:25:45:115,282,0,1,2,50972,111062,79511,-54,-241,966
05.10.2024 20:25:45:119,283,0,1,2,50961,111057,79507,-50,-244,965
05.10.2024 20:25:45:123,284,0,1,2,50959,111062,79502,-50,-241,973
05.10.2024 20:25:45:127,285,0,1,2,50952,111057,79499,-49,-239,971
05.10.2024 20:25:45:131,286,0,1,2,50952,111055,79499,-53,-243,963
05.10.2024 20:25:45:134,287,0,1,2,50945,111051,79498,-53,-239,968
05.10.2024 20:25:45:138,288,0,1,2,50940,111055,79493,-50,-243,975
05.10.2024 20:25:45:142,289,0,1,2,50943,111046,79483,-59,-237,969
05.10.2024 20:25:45:146,290,0,1,2,50937,111043,79489,-58,-241,970
05.10.2024 20:25:45:150,291,0,1,2,50936,111042,79482,-59,-242,976
05.10.2024 20:25:45:154,292,0,1,2,50939,111038,79477,-59,-241,974
05.10.2024 20:25:45:158,293,0,1,2,50940,111032,79476,-51,-242,972
05.10.2024 20:25:45:162,294,0,1,2,50944,111021,79470,-51,-244,969
05.10.2024 20:25:45:166,295,0,1,2,50943,111019,79464,-54,-247,963
05.10.2024 20:25:45:170,296,0,1,2,50945,111018,79460,-56,-244,971
05.10.2024 20:25:45:173,297,0,1,2,50939,111012,79462,-53,-245,970
05.10.2024 20:25:45:177,298,0,1,2,50941,111011,79457,-57,-244,970
05.10.2024 20:25:45:181,299,0,1,2,50934,111005,79460,-57,-245,967
05.10.2024 20:25:45:185,300,0,1,2,50935,110998,79456,-51,-244,968
05.10.2024 20:25:45:189,301,0,1,2,50937,110999,79453,-55,-244,967
05.10.2024 20:25:45:193,302,0,1,2,50934,110995,79447,-55,-243,966
05.10.2024 20:25:45:197,303,0,1,2,50933,110994,79448,-60,-243,964
05.10.2024 20:25:45:201,304,0,1,2,50934,110989,79447,-52,-243,966
05.10.2024 20:25:45:205,305,0,1,2,50943,110983,79444,-57,-246,968
05.10.2024 20:25:45:209,306,0,1,2,50941,110984,79440,-52,-235,962
05.10.2024 20:25:45:213,307,0,1,2,50939,110980,79434,-58,-234,972
05.10.2024 20:25:45:216,308,0,1,2,50942,110974,79432,-51,-234,968
05.10.2024 20:25:45:220,309,0,1,2,50942,110970,79434,-53,-242,972
05.10.2024 20:25:45:224,310,0,1,2,50944,110961,79421,-55,-242,970
05.10.2024 20:25:45:228,311,0,1,2,50941,110952,79423,-57,-244,963
05.10.2024 20:25:45:232,312,0,1,2,50948,110945,79412,-50,-242,964
05.10.2024 20:25:45:236,313,0,1,2,50944,110937,79411,-60,-246,964
05.10.2024 20:25:45:240,314,0,1,2,50943,110930,79405,-62,-245,970
05.10.2024 20:25:45:244,315,0,1,2,50946,110923,79393,-57,-243,966
05.10.2024 20:25:45:248,316,0,1,2,50952,110912,79394,-58,-249,969
05.10.2024 20:25:45:252,317,0,1,2,50949,110903,79384,-55,-251,971
05.10.2024 20:25:45:255,318,0,1,2,50949,110896,79378,-57,-252,968
05.10.2024 20:25:45:259,319,0,1,2,50952,110884,79379,-57,-250,969
05.10.2024 20:25:45:263,320,0,1,2,50951,110883,79374,-56,-254,969
05.10.2024 20:25:45:267,321,0,1,2,50955,110876,79370,-63,-255,964
05.10.2024 20:25:45:271,322,0,1,2,50956,110872,79366,-57,-250,971
05.10.2024 20:25:45:275,323,0,1,2,50947,110862,79364,-55,-254,961
05.10.2024 20:25:45:279,324,0,1,2,50949,110863,79362,-58,-249,962
05.10.2024 20:25:45:283,325,0,1,2,50957,110860,79360,-59,-244,962
05.10.2024 20:25:45:287,326,0,1,2,50948,110845,79359,-59,-244,963
05.10.2024 20:25:45:291,327,0,1,2,50952,110844,79349,-56,-250,973
05.10.2024 20:25:45:294,328,0,1,2,50952,110841,79351,-54,-251,968
05.10.2024 20:25:45:298,329,0,1,2,50948,110833,79349,-55,-252,972
05.10.2024 20:25:45:302,330,0,1,2,50949,110829,79343,-55,-245,968
05.10.2024 20:25:45:306,331,0,1,2,50956,110822,79348,-58,-247,968
05.10.2024 20:25:45:310,332,0,1,2,50950,110814,79341,-50,-249,972
05.10.2024 20:25:45:314,333,0,1,2,50955,110810,79342,-59,-244,969
05.10.2024 20:25:45:318,334,0,1,2,50952,110807,79340,-60,-238,970
05.10.2024 20:25:45:322,335,0,1,2,50956,110797,79331,-57,-242,969
05.10.2024 20:25:45:326,336,0,1,2,50958,110793,79325,-56,-245,972
05.10.2024 20:25:45:330,337,0,1,2,50953,110782,79322,-61,-245,970
05.10.2024 20:25:45:333,338,0,1,2,50960,110776,79318,-56,-245,967
05.10.2024 20:25:45:337,339,0,1,2,50959,110772,79316,-54,-239,966
05.10.2024 20:25:45:341,340,0,1,2,50959,110763,79314,-54,-239,961
05.10.2024 20:25:45:345,341,0,1,2,50964,110760,79303,-51,-246,963
05.10.2024 20:25:45:349,342,0,1,2,50965,110751,79301,-52,-244,960
05.10.2024 20:25:45:353,343,0,1,2,50974,110750,79297,-57,-245,966
05.10.2024 20:25:45:357,344,0,1,2,50973,110742,79295,-52,-246,963
05.10.2024 20:25:45:361,345,0,1,2,50976,110730,79292,-50,-244,964
05.10.2024 20:25:45:365,346,0,1,2,50981,110725,79287,-52,-245,963
05.10.2024 20:25:45:369,347,0,1,2,50991,110718,79279,-53,-249,965
05.10.2024 20:25:45:373,348,0,1,2,50993,110713,79277,-57,-248,966
05.10.2024 20:25:45:376,349,0,1,2,50994,110708,79275,-56,-248,967
05.10.2024 20:25:45:380,350,0,1,2,50997,110704,79271,-54,-245,973
05.10.2024 20:25:45:384,351,0,1,2,50999,110694,79267,-54,-250,970
05.10.2024 20:25:45:388,352,0,1,2,51004,110689,79261,-59,-242,965
05.10.2024 20:25:45:392,353,0,1,2,51010,110685,79257,-56,-248,963
05.10.2024 20:25:45:396,354,0,1,2,51017,110676,79252,-51,-246,962
05.10.2024 20:25:45:400,355,0,1,2,51013,110675,79251,-57,-244,966
05.10.2024 20:25:45:404,356,0,1,2,51014,110668,79246,-55,-247,964
05.10.2024 20:25:45:408,357,0,1,2,51019,110661,79244,-56,-249,961
05.10.2024 20:25:45:412,358,0,1,2,51029,110664,79239,-57,-248,969
05.10.2024 20:25:45:415,359,0,1,2,51028,110650,79238,-57,-251,962
05.10.2024 20:25:45:419,360,0,1,2,51040,110649,79236,-56,-252,971
05.10.2024 20:25:45:423,361,0,1,2,51033,110646,79238,-63,-250,968
05.10.2024 20:25:45:427,362,0,1,2,51039,110642,79231,-57,-243,961
05.10.2024 20:25:45:431,363,0,1,2,51043,110641,79228,-63,-247,973
05.10.2024 20:25:45:435,364,0,1,2,51043,110642,79224,-56,-248,972
05.10.2024 20:25:45:439,365,0,1,2,51051,110634,79220,-51,-251,967
05.10.2024 20:25:45:443,366,0,1,2,51054,110625,79214,-60,-259,961
05.10.2024 20:25:45:447,367,0,1,2,51055,110623,79210,-56,-255,965
05.10.2024 20:25:45:451,368,0,1,2,51061,110619,79213,-60,-254,969
05.10.2024 20:25:45:454,369,0,1,2,51063,110618,79209,-57,-252,973
05.10.2024 20:25:45:458,370,0,1,2,51061,110613,79206,-57,-249,964
05.10.2024 20:25:45:462,371,0,1,2,51071,110612,79206,-55,-246,962
05.10.2024 20:25:45:466,372,0,1,2,51068,110609,79205,-53,-245,966
05.10.2024 20:25:45:470,373,0,1,2,51075,110605,79199,-59,-252,965
05.10.2024 20:25:45:474,374,0,1,2,51081,110600,79201,-57,-246,967
05.10.2024 20:25:45:478,375,0,1,2,51082,110602,79199,-52,-244,966
05.10.2024 20:25:45:482,376,0,1,2,51088,110596,79197,-55,-249,958
05.10.2024 20:25:45:486,377,0,1,2,51087,110596,79198,-57,-249,963
05.10.2024 20:25:45:490,378,0,1,2,51093,110590,79191,-59,-252,970
05.10.2024 20:25:45:493,379,0,1,2,51091,110583,79186,-49,-255,969
05.10.2024 20:25:45:497,380,0,1,2,51099,110577,79183,-54,-252,966
05.10.2024 20:25:45:501,381,0,1,2,51094,110576,79184,-57,-254,968
05.10.2024 20:25:45:505,382,0,1,2,51092,110576,79185,-56,-251,968
05.10.2024 20:25:45:509,383,0,1,2,51103,110570,79178,-52,-251,967
05.10.2024 20:25:45:513,384,0,1,2,51096,110569,79178,-53,-247,966
05.10.2024 20:25:45:517,385,0,1,2,51105,110565,79170,-58,-245,962
05.10.2024 20:25:45:521,386,0,1,2,51103,110566,79176,-61,-250,966
05.10.2024 20:25:45:525,387,0,1,2,51104,110566,79163,-57,-252,966
05.10.2024 20:25:45:529,388,0,1,2,51103,110561,79166,-59,-247,966
05.10.2024 20:25:45:532,389,0,1,2,51104,110557,79168,-60,-253,969
05.10.2024 20:25:45:536,390,0,1,2,51104,110552,79163,-59,-250,965
05.10.2024 20:25:45:540,391,0,1,2,51102,110547,79160,-59,-246,969
05.10.2024 20:25:45:544,392,0,1,2,51108,110547,79157,-59,-251,969
05.10.2024 20:25:45:548,393,0,1,2,51107,110545,79149,-54,-247,966
05.10.2024 20:25:45:552,394,0,1,2,51109,110540,79152,-56,-249,966
05.10.2024 20:25:45:556,395,0,1,2,51113,110534,79145,-54,-251,966
05.10.2024 20:25:45:560,396,0,1,2,51111,110531,79145,-57,-246,962
05.10.2024 20:25:45:564,397,0,1,2,51114,110534,79144,-57,-249,962
05.10.2024 20:25:45:568,398,0,1,2,51116,110521,79140,-59,-251,965
05.10.2024 20:25:45:572,399,0,1,2,51117,110521,79135,-61,-250,964
05.10.2024 20:25:45:575,400,0,1,2,51112,110519,79140,-53,-249,964
05.10.2024 20:25:45:579,401,0,1,2,51111,110518,79132,-55,-252,967
05.10.2024 20:25:45:583,402,0,1,2,51115,110512,79132,-56,-250,967
05.10.2024 20:25:45:587,403,0,1,2,51118,110517,79129,-53,-254,967
05.10.2024 20:25:45:591,404,0,1,2,51118,110511,79132,-54,-258,963
05.10.2024 20:25:45:595,405,0,1,2,51119,110510,79128,-56,-248,966
05.10.2024 20:25:45:599,406,0,1,2,51118,110513,79127,-59,-253,968
05.10.2024 20:25:45:603,407,0,1,2,51117,110511,79128,-57,-254,970
05.10.2024 20:25:45:607,408,0,1,2,51116,110503,79125,-56,-245,972
05.10.2024 20:25:45:611,409,0,1,2,51124,110507,79125,-59,-248,971
05.10.2024 20:25:45:614,410,0,1,2,51119,110505,79125,-56,-249,966
05.10.2024 20:25:45:618,411,0,1,2,51127,110503,79124,-54,-247,963
05.10.2024 20:25:45:622,412,0,1,2,51130,110510,79124,-56,-248,968
05.10.2024 20:25:45:626,413,0,1,2,51131,110502,79127,-57,-244,965
05.10.2024 20:25:45:630,414,0,1,2,51133,110501,79120,-57,-244,964
05.10.2024 20:25:45:634,415,0,1,2,51135,110494,79117,-51,-246,960
05.10.2024 20:25:45:638,416,0,1,2,51135,110498,79113,-54,-246,973
05.10.2024 20:25:45:642,417,0,1,2,51136,110496,79113,-54,-248,966
05.10.2024 20:25:45:646,418,0,1,2,51136,110488,79109,-53,-250,967
05.10.2024 20:25:45:650,419,0,1,2,51140,110484,79110,-57,-249,969
05.10.2024 20:25:45:653,420,0,1,2,51135,110482,79106,-56,-247,967
05.10.2024 20:25:45:657,421,0,1,2,51139,110477,79101,-54,-252,965
05.10.2024 20:25:45:661,422,0,1,2,51141,110475,79099,-49,-252,966
05.10.2024 20:25:45:665,423,0,1,2,51145,110474,79099,-53,-256,961
05.10.2024 20:25:45:669,424,0,1,2,51146,110471,79100,-51,-244,962
05.10.2024 20:25:45:673,425,0,1,2,51148,110466,79094,-53,-251,968
05.10.2024 20:25:45:677,426,0,1,2,51160,110466,79094,-57,-250,960
05.10.2024 20:25:45:681,427,0,1,2,51161,110463,79090,-54,-252,967
05.10.2024 20:25:45:685,428,0,1,2,51159,110464,79089,-54,-257,961
05.10.2024 20:25:45:689,429,0,1,2,51163,110455,79085,-50,-251,967
05.10.2024 20:25:45:692,430,0,1,2,51158,110458,79084,-55,-255,968
05.10.2024 20:25:45:696,431,0,1,2,51165,110450,79083,-55,-255,966
05.10.2024 20:25:45:700,432,0,1,2,51167,110454,79080,-53,-256,964
05.10.2024 20:25:45:704,433,0,1,2,51171,110449,79084,-57,-251,967
05.10.2024 20:25:45:708,434,0,1,2,51168,110448,79083,-51,-248,970
05.10.2024 20:25:45:712,435,0,1,2,51178,110444,79081,-56,-249,961
05.10.2024 20:25:45:716,436,0,1,2,51183,110445,79075,-55,-252,962
05.10.2024 20:25:45:720,437,0,1,2,51181,110442,79080,-57,-247,957
05.10.2024 20:25:45:724,438,0,1,2,51184,110450,79078,-52,-249,964
05.10.2024 20:25:45:728,439,0,1,2,51189,110447,79078,-56,-248,964
05.10.2024 20:25:45:732,440,0,1,2,51193,110446,79077,-56,-244,962
05.10.2024 20:25:45:735,441,0,1,2,51191,110442,79077,-57,-251,962
05.10.2024 20:25:45:739,442,0,1,2,51198,110443,79077,-55,-252,968
05.10.2024 20:25:45:743,443,0,1,2,51192,110438,79078,-51,-249,970
05.10.2024 20:25:45:747,444,0,1,2,51201,110437,79071,-51,-256,964
05.10.2024 20:25:45:751,445,0,1,2,51202,110439,79074,-50,-252,969
05.10.2024 20:25:45:755,446,0,1,2,51210,110439,79072,-54,-245,967
05.10.2024 20:25:45:759,447,0,1,2,51214,110437,79072,-58,-248,967
05.10.2024 20:25:45:763,448,0,1,2,51218,110435,79075,-58,-251,968
05.10.2024 20:25:45:767,449,0,1,2,51226,110432,79068,-49,-251,961
05.10.2024 20:25:45:771,450,0,1,2,51228,110430,79067,-57,-252,965
05.10.2024 20:25:45:774,451,0,1,2,51232,110425,79064,-50,-256,962
05.10.2024 20:25:45:778,452,0,1,2,51238,110425,79062,-57,-253,963
05.10.2024 20:25:45:782,453,0,1,2,51242,110422,79060,-52,-251,963
05.10.2024 20:25:45:786,454,0,1,2,51242,110424,79056,-54,-252,964
05.10.2024 20:25:45:790,455,0,1,2,51250,110417,79059,-53,-257,968
05.10.2024 20:25:45:794,456,0,1,2,51251,110417,79059,-50,-251,966
05.10.2024 20:25:45:798,457,0,1,2,51256,110415,79055,-53,-251,970
05.10.2024 20:25:45:802,458,0,1,2,51260,110415,79060,-49,-248,971
05.10.2024 20:25:45:806,459,0,1,2,51270,110413,79059,-58,-243,965
05.10.2024 20:25:45:810,460,0,1,2,51271,110410,79057,-45,-246,971
05.10.2024 20:25:45:813,461,0,1,2,51274,110411,79055,-53,-251,965
05.10.2024 20:25:45:817,462,0,1,2,51284,110406,79048,-57,-246,965
05.10.2024 20:25:45:821,463,0,1,2,51283,110397,79047,-56,-252,966
05.10.2024 20:25:45:825,464,0,1,2,51289,110398,79043,-56,-251,964
05.10.2024 20:25:45:829,465,0,1,2,51291,110395,79043,-57,-248,962
05.10.2024 20:25:45:833,466,0,1,2,51296,110398,79043,-55,-249,967
05.10.2024 20:25:45:837,467,0,1,2,51301,110391,79037,-56,-255,965
05.10.2024 20:25:45:841,468,0,1,2,51305,110384,79035,-60,-254,970
05.10.2024 20:25:45:845,469,0,1,2,51305,110385,79035,-51,-253,962
05.10.2024 20:25:45:849,470,0,1,2,51312,110378,79031,-52,-263,967
05.10.2024 20:25:45:852,471,0,1,2,51317,110374,79029,-54,-258,963
05.10.2024 20:25:45:856,472,0,1,2,51327,110366,79024,-49,-260,962
05.10.2024 20:25:45:860,473,0,1,2,51324,110369,79027,-54,-255,964
05.10.2024 20:25:45:864,474,0,1,2,51327,110366,79026,-49,-259,962
05.10.2024 20:25:45:868,475,0,1,2,51327,110366,79020,-55,-250,965
05.10.2024 20:25:45:872,476,0,1,2,51331,110363,79020,-51,-249,965
05.10.2024 20:25:45:876,477,0,1,2,51335,110360,79020,-51,-248,963
05.10.2024 20:25:45:880,478,0,1,2,51342,110357,79018,-49,-251,962
05.10.2024 20:25:45:884,479,0,1,2,51338,110360,79015,-48,-246,965
05.10.2024 20:25:45:888,480,0,1,2,51343,110360,79017,-51,-254,962
05.10.2024 20:25:45:892,481,0,1,2,51350,110357,79014,-48,-251,969
05.10.2024 20:25:45:895,482,0,1,2,51342,110352,79013,-56,-252,969
05.10.2024 20:25:45:899,483,0,1,2,51351,110356,79010,-47,-254,969
05.10.2024 20:25:45:903,484,0,1,2,51355,110349,79009,-47,-248,974
05.10.2024 20:25:45:907,485,0,1,2,51354,110344,79004,-49,-244,963
05.10.2024 20:25:45:911,486,0,1,2,51355,110346,79005,-47,-244,966
05.10.2024 20:25:45:915,487,0,1,2,51354,110336,78994,-49,-246,962
05.10.2024 20:25:45:919,488,0,1,2,51353,110335,78995,-51,-247,968
05.10.2024 20:25:45:923,489,0,1,2,51369,110327,78991,-47,-249,965
05.10.2024 20:25:45:927,490,0,1,2,51369,110322,78986,-53,-255,967
05.10.2024 20:25:45:931,491,0,1,2,51377,110320,78980,-47,-255,968
05.10.2024 20:25:45:934,492,0,1,2,51371,110309,78979,-50,-263,962
05.10.2024 20:25:45:938,493,0,1,2,51370,110311,78980,-49,-256,964
05.10.2024 20:25:45:942,494,0,1,2,51378,110303,78978,-55,-259,967
05.10.2024 20:25:45:946,495,0,1,2,51379,110303,78977,-53,-261,965
05.10.2024 20:25:45:950,496,0,1,2,51374,110297,78972,-51,-264,967
05.10.2024 20:25:45:954,497,0,1,2,51375,110293,78972,-55,-264,967
05.10.2024 20:25:45:958,498,0,1,2,51380,110292,78975,-53,-261,961
05.10.2024 20:25:45:962,499,0,1,2,51379,110289,78972,-56,-257,965
05.10.2024 20:25:45:966,500,0,1,2,51372,110291,78973,-55,-259,966
05.10.2024 20:25:45:970,501,0,1,2,51375,110292,78972,-58,-251,960
05.10.2024 20:25:45:973,502,0,1,2,51367,110287,78972,-59,-255,961
05.10.2024 20:25:45:977,503,0,1,2,51366,110291,78971,-57,-250,964
05.10.2024 20:25:45:981,504,0,1,2,51366,110296,78972,-51,-249,956
05.10.2024 20:25:45:985,505,0,1,2,51361,110292,78980,-55,-255,967
05.10.2024 20:25:45:989,506,0,1,2,51356,110290,78976,-55,-245,967
05.10.2024 20:25:45:993,507,0,1,2,51354,110287,78976,-53,-251,969
05.10.2024 20:25:45:997,508,0,1,2,51356,110291,78973,-56,-244,962
05.10.2024 20:25:46:1,509,0,1,2,51353,110284,78970,-57,-243,964
05.10.2024 20:25:46:5,510,0,1,2,51351,110281,78973,-54,-252,964
05.10.2024 20:25:46:9,511,0,1,2,51347,110274,78971,-49,-252,965
05.10.2024 20:25:46:12,512,0,1,2,51346,110273,78974,-50,-255,967
05.10.2024 20:25:46:16,513,0,1,2,51348,110278,78975,-51,-249,962
05.10.2024 20:25:46:20,514,0,1,2,51339,110273,78971,-50,-252,967
05.10.2024 20:25:46:24,515,0,1,2,51344,110270,78973,-50,-247,961
05.10.2024 20:25:46:28,516,0,1,2,51341,110272,78966,-50,-250,962
05.10.2024 20:25:46:32,517,0,1,2,51341,110266,78969,-51,-255,961
05.10.2024 20:25:46:36,518,0,1,2,51345,110264,78968,-54,-253,963
05.10.2024 20:25:46:40,519,0,1,2,51344,110263,78963,-50,-253,966
05.10.2024 20:25:46:44,520,0,1,2,51348,110262,78965,-50,-248,964
05.10.2024 20:25:46:48,521,0,1,2,51340,110260,78968,-51,-251,963
05.10.2024 20:25:46:52,522,0,1,2,51344,110260,78961,-47,-245,966
05.10.2024 20:25:46:55,523,0,1,2,51347,110259,78967,-52,-244,968
05.10.2024 20:25:46:59,524,0,1,2,51351,110256,78962,-52,-245,964
05.10.2024 20:25:46:63,525,0,1,2,51356,110251,78964,-55,-248,963
05.10.2024 20:25:46:67,526,0,1,2,51352,110253,78954,-55,-246,960
05.10.2024 20:25:46:71,527,0,1,2,51356,110250,78955,-60,-249,966
05.10.2024 20:25:46:75,528,0,1,2,51355,110243,78955,-51,-250,970
05.10.2024 20:25:46:79,529,0,1,2,51364,110240,78953,-53,-253,965
05.10.2024 20:25:46:83,530,0,1,2,51366,110235,78945,-51,-252,968
05.10.2024 20:25:46:87,531,0,1,2,51361,110228,78943,-57,-256,968
05.10.2024 20:25:46:91,532,0,1,2,51370,110232,78939,-62,-257,959
05.10.2024 20:25:46:94,533,0,1,2,51372,110232,78940,-53,-252,968
05.10.2024 20:25:46:98,534,0,1,2,51382,110223,78941,-52,-254,966
05.10.2024 20:25:46:102,535,0,1,2,51383,110218,78933,-56,-258,965
05.10.2024 20:25:46:106,536,0,1,2,51392,110217,78929,-53,-262,963
05.10.2024 20:25:46:110,537,0,1,2,51387,110216,78929,-52,-264,964
05.10.2024 20:25:46:114,538,0,1,2,51394,110213,78929,-51,-259,964
05.10.2024 20:25:46:118,539,0,1,2,51393,110209,78927,-59,-255,964
05.10.2024 20:25:46:122,540,0,1,2,51397,110207,78927,-46,-253,963
05.10.2024 20:25:46:126,541,0,1,2,51400,110209,78927,-55,-249,964
05.10.2024 20:25:46:130,542,0,1,2,51403,110205,78928,-49,-249,960
05.10.2024 20:25:46:133,543,0,1,2,51414,110212,78926,-57,-251,963
05.10.2024 20:25:46:137,544,0,1,2,51415,110206,78922,-52,-244,966
05.10.2024 20:25:46:141,545,0,1,2,51413,110210,78928,-51,-248,967
05.10.2024 20:25:46:145,546,0,1,2,51420,110204,78925,-53,-250,968
05.10.2024 20:25:46:149,547,0,1,2,51425,110211,78930,-51,-247,969
05.10.2024 20:25:46:153,548,0,1,2,51424,110210,78925,-44,-247,969
05.10.2024 20:25:46:157,549,0,1,2,51422,110211,78923,-54,-241,964
05.10.2024 20:25:46:161,550,0,1,2,51425,110207,78921,-48,-250,961
05.10.2024 20:25:46:165,551,0,1,2,51424,110200,78920,-56,-247,965
05.10.2024 20:25:46:169,552,0,1,2,51428,110199,78916,-56,-250,964
05.10.2024 20:25:46:172,553,0,1,2,51430,110195,78919,-55,-254,968
05.10.2024 20:25:46:176,554,0,1,2,51436,110192,78908,-49,-256,963
05.10.2024 20:25:46:180,555,0,1,2,51437,110188,78913,-46,-255,966
05.10.2024 20:25:46:184,556,0,1,2,51434,110192,78909,-55,-249,973
05.10.2024 20:25:46:188,557,0,1,2,51432,110186,78910,-55,-263,964
05.10.2024 20:25:46:192,558,0,1,2,51434,110182,78910,-48,-251,962
05.10.2024 20:25:46:196,559,0,1,2,51444,110180,78908,-47,-255,968
05.10.2024 20:25:46:200,560,0,1,2,51446,110175,78900,-52,-253,961
05.10.2024 20:25:46:204,561,0,1,2,51445,110172,78902,-53,-249,959
05.10.2024 20:25:46:208,562,0,1,2,51442,110168,78901,-54,-250,969
05.10.2024 20:25:46:211,563,0,1,2,51447,110171,78901,-56,-244,963
05.10.2024 20:25:46:215,564,0,1,2,51453,110173,78894,-57,-244,969
05.10.2024 20:25:46:219,565,0,1,2,51448,110163,78892,-49,-246,965
05.10.2024 20:25:46:223,566,0,1,2,51452,110160,78887,-57,-251,966
05.10.2024 20:25:46:227,567,0,1,2,51451,110153,78887,-53,-252,964
05.10.2024 20:25:46:231,568,0,1,2,51462,110151,78879,-53,-250,955
05.10.2024 20:25:46:235,569,0,1,2,51459,110144,78874,-55,-251,965
05.10.2024 20:25:46:239,570,0,1,2,51463,110137,78872,-55,-250,963
05.10.2024 20:25:46:243,571,0,1,2,51463,110131,78867,-52,-247,961
05.10.2024 20:25:46:247,572,0,1,2,51471,110126,78865,-59,-258,964
05.10.2024 20:25:46:251,573,0,1,2,51471,110120,78858,-55,-254,959
05.10.2024 20:25:46:254,574,0,1,2,51476,110118,78854,-48,-254,965
05.10.2024 20:25:46:258,575,0,1,2,51472,110111,78850,-53,-250,959
05.10.2024 20:25:46:262,576,0,1,2,51478,110102,78850,-48,-259,968
05.10.2024 20:25:46:266,577,0,1,2,51482,110104,78845,-56,-259,972
05.10.2024 20:25:46:270,578,0,1,2,51481,110095,78840,-57,-261,964
05.10.2024 20:25:46:274,579,0,1,2,51487,110092,78844,-51,-259,959
05.10.2024 20:25:46:278,580,0,1,2,51487,110094,78837,-47,-259,965
05.10.2024 20:25:46:282,581,0,1,2,51484,110089,78835,-49,-259,963
05.10.2024 20:25:46:286,582,0,1,2,51492,110089,78836,-48,-256,965
05.10.2024 20:25:46:290,583,0,1,2,51494,110092,78830,-49,-254,967
05.10.2024 20:25:46:293,584,0,1,2,51494,110083,78833,-55,-253,967
05.10.2024 20:25:46:297,585,0,1,2,51498,110084,78832,-44,-254,967
05.10.2024 20:25:46:301,586,0,1,2,51498,110084,78830,-52,-250,969
05.10.2024 20:25:46:305,587,0,1,2,51510,110081,78827,-52,-251,962
05.10.2024 20:25:46:309,588,0,1,2,51501,110078,78826,-50,-248,962
05.10.2024 20:25:46:313,589,0,1,2,51508,110077,78825,-44,-254,960
05.10.2024 20:25:46:317,590,0,1,2,51510,110069,78827,-47,-250,964
05.10.2024 20:25:46:321,591,0,1,2,51511,110070,78823,-49,-246,967
05.10.2024 20:25:46:325,592,0,1,2,51510,110071,78819,-49,-249,964
05.10.2024 20:25:46:329,593,0,1,2,51523,110067,78823,-51,-252,967
05.10.2024 20:25:46:332,594,0,1,2,51525,110059,78818,-56,-251,963
05.10.2024 20:25:46:336,595,0,1,2,51529,110060,78816,-52,-249,966
05.10.2024 20:25:46:340,596,0,1,2,51530,110055,78814,-52,-255,968
05.10.2024 20:25:46:344,597,0,1,2,51534,110052,78813,-49,-256,965
05.10.2024 20:25:46:348,598,0,1,2,51541,110046,78810,-53,-255,964
05.10.2024 20:25:46:352,599,0,1,2,51546,110046,78803,-50,-253,961
05.10.2024 20:25:46:356,600,0,1,2,51546,110036,78809,-50,-256,965
05.10.2024 20:25:46:360,601,0,1,2,51554,110039,78803,-45,-254,965
05.10.2024 20:25:46:364,602,0,1,2,51556,110035,78794,-52,-255,963
05.10.2024 20:25:46:368,603,0,1,2,51563,110038,78796,-52,-260,966
05.10.2024 20:25:46:371,604,0,1,2,51557,110030,78792,-53,-252,962
05.10.2024 20:25:46:375,605,0,1,2,51575,110026,78792,-53,-251,967
05.10.2024 20:25:46:379,606,0,1,2,51571,110026,78789,-60,-254,965
05.10.2024 20:25:46:383,607,0,1,2,51580,110023,78787,-52,-258,960
05.10.2024 20:25:46:387,608,0,1,2,51577,110020,78782,-49,-255,967
05.10.2024 20:25:46:391,609,0,1,2,51587,110022,78783,-50,-259,966
05.10.2024 20:25:46:395,610,0,1,2,51589,110014,78783,-59,-256,964
05.10.2024 20:25:46:399,611,0,1,2,51594,110015,78782,-52,-253,963
05.10.2024 20:25:46:403,612,0,1,2,51598,110008,78780,-54,-249,966
05.10.2024 20:25:46:407,613,0,1,2,51603,110008,78783,-53,-252,961
05.10.2024 20:25:46:411,614,0,1,2,51605,110008,78781,-54,-251,963
05.10.2024 20:25:46:414,615,0,1,2,51605,110002,78778,-53,-254,962
05.10.2024 20:25:46:418,616,0,1,2,51609,109999,78774,-52,-254,965
05.10.2024 20:25:46:422,617,0,1,2,51619,110003,78777,-52,-252,969
05.10.2024 20:25:46:426,618,0,1,2,51620,110001,78772,-54,-249,959
05.10.2024 20:25:46:430,619,0,1,2,51624,109996,78772,-50,-250,961
05.10.2024 20:25:46:434,620,0,1,2,51623,109993,78772,-52,-250,968
05.10.2024 20:25:46:438,621,0,1,2,51627,109993,78767,-54,-256,964
05.10.2024 20:25:46:442,622,0,1,2,51636,109993,78768,-54,-256,964
05.10.2024 20:25:46:446,623,0,1,2,51637,109985,78763,-51,-261,960
05.10.2024 20:25:46:450,624,0,1,2,51638,109990,78765,-49,-258,964
05.10.2024 20:25:46:453,625,0,1,2,51642,109995,78764,-49,-257,964
05.10.2024 20:25:46:457,626,0,1,2,51643,109988,78764,-53,-259,965
05.10.2024 20:25:46:461,627,0,1,2,51641,109989,78766,-50,-253,962
05.10.2024 20:25:46:465,628,0,1,2,51649,109989,78765,-55,-254,961
05.10.2024 20:25:46:469,629,0,1,2,51657,109985,78762,-51,-251,961
05.10.2024 20:25:46:473,630,0,1,2,51659,109987,78761,-53,-251,964
05.10.2024 20:25:46:477,631,0,1,2,51660,109981,78762,-53,-247,959
05.10.2024 20:25:46:481,632,0,1,2,51667,109982,78760,-56,-253,964
05.10.2024 20:25:46:485,633,0,1,2,51667,109984,78763,-58,-250,967
05.10.2024 20:25:46:489,634,0,1,2,51675,109986,78763,-53,-247,967
05.10.2024 20:25:46:492,635,0,1,2,51668,109980,78765,-53,-249,968
05.10.2024 20:25:46:496,636,0,1,2,51676,109984,78761,-59,-252,968
05.10.2024 20:25:46:500,637,0,1,2,51678,109978,78756,-49,-253,968
05.10.2024 20:25:46:504,638,0,1,2,51678,109981,78761,-49,-256,963
05.10.2024 20:25:46:508,639,0,1,2,51688,109978,78755,-53,-255,962
05.10.2024 20:25:46:512,640,0,1,2,51688,109977,78748,-53,-253,959
05.10.2024 20:25:46:516,641,0,1,2,51688,109979,78756,-57,-249,968
05.10.2024 20:25:46:520,642,0,1,2,51691,109966,78751,-54,-246,966
05.10.2024 20:25:46:524,643,0,1,2,51702,109972,78752,-55,-250,964
05.10.2024 20:25:46:528,644,0,1,2,51698,109963,78749,-50,-254,964
05.10.2024 20:25:46:531,645,0,1,2,51702,109959,78745,-51,-252,964
05.10.2024 20:25:46:535,646,0,1,2,51705,109958,78745,-47,-253,965
05.10.2024 20:25:46:539,647,0,1,2,51704,109951,78739,-48,-250,970
05.10.2024 20:25:46:543,648,0,1,2,51717,109948,78737,-48,-252,960
05.10.2024 20:25:46:547,649,0,1,2,51716,109950,78734,-51,-251,962
05.10.2024 20:25:46:551,650,0,1,2,51721,109939,78733,-47,-254,961
05.10.2024 20:25:46:555,651,0,1,2,51727,109939,78729,-48,-259,960
05.10.2024 20:25:46:559,652,0,1,2,51723,109932,78725,-53,-249,966
05.10.2024 20:25:46:563,653,0,1,2,51727,109925,78724,-53,-257,961
05.10.2024 20:25:46:567,654,0,1,2,51731,109933,78723,-55,-256,966
05.10.2024 20:25:46:571,655,0,1,2,51736,109932,78723,-52,-259,966
05.10.2024 20:25:46:574,656,0,1,2,51736,109932,78717,-54,-254,961
05.10.2024 20:25:46:578,657,0,1,2,51736,109929,78722,-53,-252,960
05.10.2024 20:25:46:582,658,0,1,2,51742,109927,78718,-62,-251,966
05.10.2024 20:25:46:586,659,0,1,2,51735,109923,78719,-54,-262,962
05.10.2024 20:25:46:590,660,0,1,2,51742,109921,78718,-57,-260,965
05.10.2024 20:25:46:594,661,0,1,2,51741,109915,78719,-51,-260,961
05.10.2024 20:25:46:598,662,0,1,2,51738,109917,78718,-55,-252,959
05.10.2024 20:25:46:602,663,0,1,2,51739,109917,78720,-56,-257,961
05.10.2024 20:25:46:606,664,0,1,2,51734,109919,78719,-53,-251,963
05.10.2024 20:25:46:610,665,0,1,2,51728,109919,78720,-56,-251,963
05.10.2024 20:25:46:613,666,0,1,2,51726,109919,78723,-52,-245,964
05.10.2024 20:25:46:617,667,0,1,2,51728,109917,78719,-57,-252,966
05.10.2024 20:25:46:621,668,0,1,2,51723,109915,78719,-55,-256,964
05.10.2024 20:25:46:625,669,0,1,2,51723,109916,78716,-55,-257,968
05.10.2024 20:25:46:629,670,0,1,2,51718,109913,78723,-57,-258,966
05.10.2024 20:25:46:633,671,0,1,2,51714,109910,78729,-56,-251,961
05.10.2024 20:25:46:637,672,0,1,2,51711,109906,78724,-57,-252,966
05.10.2024 20:25:46:641,673,0,1,2,51706,109913,78723,-57,-256,966
05.10.2024 20:25:46:645,674,0,1,2,51713,109904,78719,-52,-255,962
05.10.2024 20:25:46:649,675,0,1,2,51703,109903,78719,-51,-255,964
05.10.2024 20:25:46:652,676,0,1,2,51693,109898,78723,-49,-252,964
05.10.2024 20:25:46:656,677,0,1,2,51699,109900,78721,-56,-258,961
05.10.2024 20:25:46:660,678,0,1,2,51693,109902,78723,-48,-244,962
05.10.2024 20:25:46:664,679,0,1,2,51695,109903,78721,-57,-253,963
05.10.2024 20:25:46:668,680,0,1,2,51696,109903,78724,-56,-248,962
05.10.2024 20:25:46:672,681,0,1,2,51690,109903,78719,-55,-244,969
05.10.2024 20:25:46:676,682,0,1,2,51688,109896,78721,-50,-246,971
05.10.2024 20:25:46:680,683,0,1,2,51685,109894,78719,-52,-253,963
05.10.2024 20:25:46:684,684,0,1,2,51687,109893,78720,-49,-249,963
05.10.2024 20:25:46:688,685,0,1,2,51689,109892,78715,-51,-244,963
05.10.2024 20:25:46:691,686,0,1,2,51687,109886,78717,-51,-244,965
05.10.2024 20:25:46:695,687,0,1,2,51696,109882,78711,-52,-246,965
05.10.2024 20:25:46:699,688,0,1,2,51693,109883,78711,-50,-242,961
05.10.2024 20:25:46:703,689,0,1,2,51692,109877,78707,-57,-253,965
05.10.2024 20:25:46:707,690,0,1,2,51691,109870,78704,-55,-246,962
05.10.2024 20:25:46:711,691,0,1,2,51694,109867,78693,-51,-246,966
05.10.2024 20:25:46:715,692,0,1,2,51694,109857,78694,-56,-256,965
05.10.2024 20:25:46:719,693,0,1,2,51700,109846,78688,-54,-256,966
05.10.2024 20:25:46:723,694,0,1,2,51696,109845,78684,-54,-263,969
05.10.2024 20:25:46:727,695,0,1,2,51704,109839,78683,-50,-261,966
05.10.2024 20:25:46:731,696,0,1,2,51701,109837,78680,-50,-258,970
05.10.2024 20:25:46:734,697,0,1,2,51706,109832,78671,-60,-258,967
05.10.2024 20:25:46:738,698,0,1,2,51705,109827,78674,-59,-253,970
05.10.2024 20:25:46:742,699,0,1,2,51707,109827,78672,-61,-257,961
05.10.2024 20:25:46:746,700,0,1,2,51708,109819,78666,-57,-256,962
05.10.2024 20:25:46:750,701,0,1,2,51713,109817,78663,-53,-262,962
05.10.2024 20:25:46:754,702,0,1,2,51709,109817,78662,-62,-256,960
05.10.2024 20:25:46:758,703,0,1,2,51713,109810,78660,-54,-263,969
05.10.2024 20:25:46:762,704,0,1,2,51718,109812,78657,-57,-254,967
05.10.2024 20:25:46:766,705,0,1,2,51719,109812,78659,-60,-251,963
05.10.2024 20:25:46:770,706,0,1,2,51715,109809,78654,-56,-249,965
05.10.2024 20:25:46:773,707,0,1,2,51715,109807,78650,-53,-249,968
05.10.2024 20:25:46:777,708,0,1,2,51715,109802,78647,-54,-250,968
05.10.2024 20:25:46:781,709,0,1,2,51730,109801,78645,-57,-244,966
05.10.2024 20:25:46:785,710,0,1,2,51725,109798,78648,-49,-248,965
05.10.2024 20:25:46:789,711,0,1,2,51726,109793,78642,-52,-246,968
05.10.2024 20:25:46:793,712,0,1,2,51728,109790,78640,-57,-256,965
05.10.2024 20:25:46:797,713,0,1,2,51730,109782,78636,-56,-255,965
05.10.2024 20:25:46:801,714,0,1,2,51733,109784,78635,-56,-253,961
05.10.2024 20:25:46:805,715,0,1,2,51737,109781,78629,-50,-261,967
05.10.2024 20:25:46:809,716,0,1,2,51736,109781,78627,-57,-253,965
05.10.2024 20:25:46:812,717,0,1,2,51741,109769,78623,-58,-255,962
05.10.2024 20:25:46:816,718,0,1,2,51742,109773,78621,-53,-256,968
05.10.2024 20:25:46:820,719,0,1,2,51743,109766,78624,-56,-253,966
05.10.2024 20:25:46:824,720,0,1,2,51751,109766,78621,-57,-260,964
05.10.2024 20:25:46:828,721,0,1,2,51746,109761,78620,-53,-259,970
05.10.2024 20:25:46:832,722,0,1,2,51743,109761,78623,-58,-249,960
05.10.2024 20:25:46:836,723,0,1,2,51750,109758,78621,-53,-252,963
05.10.2024 20:25:46:840,724,0,1,2,51750,109760,78613,-57,-253,960
05.10.2024 20:25:46:844,725,0,1,2,51755,109755,78616,-55,-253,964
05.10.2024 20:25:46:848,726,0,1,2,51757,109757,78611,-57,-251,962
05.10.2024 20:25:46:851,727,0,1,2,51755,109756,78615,-56,-251,962
05.10.2024 20:25:46:855,728,0,1,2,51757,109756,78610,-60,-249,963
05.10.2024 20:25:46:859,729,0,1,2,51752,109752,78610,-58,-246,966
05.10.2024 20:25:46:863,730,0,1,2,51758,109750,78606,-58,-246,964
05.10.2024 20:25:46:867,731,0,1,2,51756,109744,78601,-54,-246,964
05.10.2024 20:25:46:871,732,0,1,2,51759,109739,78601,-56,-253,971
05.10.2024 20:25:46:875,733,0,1,2,51753,109731,78591,-59,-256,967
05.10.2024 20:25:46:879,734,0,1,2,51755,109725,78590,-53,-254,968
05.10.2024 20:25:46:883,735,0,1,2,51759,109719,78590,-52,-257,963
05.10.2024 20:25:46:887,736,0,1,2,51754,109724,78589,-59,-257,960
05.10.2024 20:25:46:890,737,0,1,2,51755,109714,78582,-56,-258,960
05.10.2024 20:25:46:894,738,0,1,2,51759,109713,78580,-57,-254,963
05.10.2024 20:25:46:898,739,0,1,2,51759,109703,78575,-56,-264,963
05.10.2024 20:25:46:902,740,0,1,2,51753,109704,78574,-52,-256,962
05.10.2024 20:25:46:906,741,0,1,2,51760,109702,78566,-52,-259,963
05.10.2024 20:25:46:910,742,0,1,2,51759,109697,78564,-52,-253,967
05.10.2024 20:25:46:914,743,0,1,2,51759,109695,78567,-53,-254,966
05.10.2024 20:25:46:918,744,0,1,2,51760,109688,78560,-59,-258,961
05.10.2024 20:25:46:922,745,0,1,2,51760,109688,78561,-53,-259,966
05.10.2024 20:25:46:926,746,0,1,2,51755,109683,78561,-55,-258,964
05.10.2024 20:25:46:930,747,0,1,2,51763,109683,78561,-53,-253,961
05.10.2024 20:25:46:933,748,0,1,2,51765,109683,78553,-54,-247,967
05.10.2024 20:25:46:937,749,0,1,2,51759,109673,78551,-58,-247,971
05.10.2024 20:25:46:941,750,0,1,2,51760,109675,78552,-57,-244,968
05.10.2024 20:25:46:945,751,0,1,2,51760,109673,78553,-56,-244,966
05.10.2024 20:25:46:949,752,0,1,2,51760,109668,78544,-59,-254,967
05.10.2024 20:25:46:953,753,0,1,2,51761,109665,78538,-56,-255,965
05.10.2024 20:25:46:957,754,0,1,2,51769,109661,78536,-61,-253,967
05.10.2024 20:25:46:961,755,0,1,2,51769,109660,78533,-57,-252,969
05.10.2024 20:25:46:965,756,0,1,2,51766,109656,78529,-55,-247,965
05.10.2024 20:25:46:969,757,0,1,2,51772,109647,78527,-51,-251,962
05.10.2024 20:25:46:972,758,0,1,2,51774,109646,78524,-55,-258,967
05.10.2024 20:25:46:976,759,0,1,2,51774,109635,78523,-55,-258,967
05.10.2024 20:25:46:980,760,0,1,2,51776,109636,78517,-55,-261,964
05.10.2024 20:25:46:984,761,0,1,2,51768,109627,78511,-56,-258,963
05.10.2024 20:25:46:988,762,0,1,2,51780,109630,78509,-53,-259,967
05.10.2024 20:25:46:992,763,0,1,2,51778,109623,78506,-51,-254,963
05.10.2024 20:25:46:996,764,0,1,2,51779,109618,78505,-56,-251,962
05.10.2024 20:25:47:0,765,0,1,2,51787,109616,78497,-50,-258,964
05.10.2024 20:25:47:4,766,0,1,2,51782,109614,78497,-54,-259,960
05.10.2024 20:25:47:8,767,0,1,2,51781,109609,78495,-56,-253,958
05.10.2024 20:25:47:11,768,0,1,2,51793,109613,78497,-53,-251,971
05.10.2024 20:25:47:15,769,0,1,2,51796,109612,78494,-61,-253,963
05.10.2024 20:25:47:19,770,0,1,2,51793,109605,78492,-63,-251,968
05.10.2024 20:25:47:23,771,0,1,2,51789,109602,78489,-58,-247,961
05.10.2024 20:25:47:27,772,0,1,2,51796,109596,78483,-57,-250,967
05.10.2024 20:25:47:31,773,0,1,2,51796,109596,78482,-57,-254,963
05.10.2024 20:25:47:35,774,0,1,2,51803,109594,78479,-61,-252,968
05.10.2024 20:25:47:39,775,0,1,2,51802,109590,78474,-55,-259,962
05.10.2024 20:25:47:43,776,0,1,2,51805,109588,78473,-57,-253,966
05.10.2024 20:25:47:47,777,0,1,2,51808,109583,78475,-53,-252,962
05.10.2024 20:25:47:50,778,0,1,2,51811,109580,78473,-55,-257,967
05.10.2024 20:25:47:54,779,0,1,2,51808,109577,78468,-54,-261,961
05.10.2024 20:25:47:58,780,0,1,2,51817,109578,78472,-59,-258,965
05.10.2024 20:25:47:62,781,0,1,2,51814,109574,78465,-58,-252,965
05.10.2024 20:25:47:66,782,0,1,2,51813,109574,78467,-54,-257,965
05.10.2024 20:25:47:70,783,0,1,2,51815,109570,78467,-54,-254,964
05.10.2024 20:25:47:74,784,0,1,2,51812,109566,78462,-58,-258,966
05.10.2024 20:25:47:78,785,0,1,2,51821,109570,78456,-48,-259,966
05.10.2024 20:25:47:82,786,0,1,2,51823,109571,78460,-49,-257,960
05.10.2024 20:25:47:86,787,0,1,2,51827,109570,78456,-49,-250,966
05.10.2024 20:25:47:90,788,0,1,2,51823,109571,78461,-52,-255,964
05.10.2024 20:25:47:93,789,0,1,2,51829,109567,78463,-46,-251,967
05.10.2024 20:25:47:97,790,0,1,2,51831,109566,78462,-51,-253,969
05.10.2024 20:25:47:101,791,0,1,2,51827,109571,78463,-53,-251,959
05.10.2024 20:25:47:105,792,0,1,2,51833,109573,78465,-48,-244,965
05.10.2024 20:25:47:109,793,0,1,2,51834,109574,78463,-57,-243,966
05.10.2024 20:25:47:113,794,0,1,2,51835,109573,78462,-46,-253,966
05.10.2024 20:25:47:117,795,0,1,2,51839,109567,78465,-62,-248,963
05.10.2024 20:25:47:121,796,0,1,2,51845,109561,78464,-59,-251,970
05.10.2024 20:25:47:125,797,0,1,2,51850,109566,78460,-58,-250,960
05.10.2024 20:25:47:129,798,0,1,2,51848,109568,78462,-52,-250,961
05.10.2024 20:25:47:132,799,0,1,2,51851,109563,78458,-53,-250,964
05.10.2024 20:25:47:136,800,0,1,2,51860,109559,78455,-60,-255,963
05.10.2024 20:25:47:140,801,0,1,2,51859,109557,78456,-56,-253,962
05.10.2024 20:25:47:144,802,0,1,2,51868,109553,78448,-59,-265,962
05.10.2024 20:25:47:148,803,0,1,2,51865,109554,78452,-56,-264,961
05.10.2024 20:25:47:152,804,0,1,2,51874,109550,78447,-55,-259,963
05.10.2024 20:25:47:156,805,0,1,2,51869,109552,78448,-49,-260,963
05.10.2024 20:25:47:160,806,0,1,2,51876,109551,78453,-54,-260,965
05.10.2024 20:25:47:164,807,0,1,2,51882,109552,78451,-52,-188,964
05.10.2024 20:25:47:168,808,0,1,2,51885,109550,78451,-57,-254,961
05.10.2024 20:25:47:171,809,0,1,2,51883,109550,78450,-57,-248,963
05.10.2024 20:25:47:175,810,0,1,2,51892,109550,78447,-58,-252,971
05.10.2024 20:25:47:179,811,0,1,2,51891,109547,78442,-55,-250,968
05.10.2024 20:25:47:183,812,0,1,2,51893,109543,78444,-50,-252,970
05.10.2024 20:25:47:187,813,0,1,2,51899,109543,78443,-50,-253,969
05.10.2024 20:25:47:191,814,0,1,2,51898,109531,78442,-57,-249,965
05.10.2024 20:25:47:195,815,0,1,2,51901,109533,78435,-53,-246,965
05.10.2024 20:25:47:199,816,0,1,2,51905,109527,78432,-51,-249,971
05.10.2024 20:25:47:203,817,0,1,2,51907,109523,78427,-58,-246,962
05.10.2024 20:25:47:207,818,0,1,2,51909,109520,78423,-57,-246,964
05.10.2024 20:25:47:210,819,0,1,2,51906,109510,78418,-56,-255,967
05.10.2024 20:25:47:214,820,0,1,2,51911,109501,78416,-57,-254,965
05.10.2024 20:25:47:218,821,0,1,2,51916,109501,78410,-53,-256,966
05.10.2024 20:25:47:222,822,0,1,2,51914,109496,78406,-58,-254,966
05.10.2024 20:25:47:226,823,0,1,2,51912,109491,78403,-56,-259,966
05.10.2024 20:25:47:230,824,0,1,2,51914,109487,78400,-56,-260,961
05.10.2024 20:25:47:234,825,0,1,2,51916,109480,78397,-57,-255,958
05.10.2024 20:25:47:238,826,0,1,2,51912,109477,78390,-56,-251,964
05.10.2024 20:25:47:242,827,0,1,2,51905,109477,78390,-54,-253,961
05.10.2024 20:25:47:246,828,0,1,2,51906,109473,78389,-56,-251,970
05.10.2024 20:25:47:250,829,0,1,2,51902,109473,78384,-61,-254,966
05.10.2024 20:25:47:253,830,0,1,2,51900,109461,78384,-59,-260,966
05.10.2024 20:25:47:257,831,0,1,2,51897,109461,78381,-58,-255,966
05.10.2024 20:25:47:261,832,0,1,2,51891,109453,78378,-54,-254,965
05.10.2024 20:25:47:265,833,0,1,2,51889,109454,78381,-60,-257,959
05.10.2024 20:25:47:269,834,0,1,2,51881,109451,78375,-60,-257,959
05.10.2024 20:25:47:273,835,0,1,2,51881,109451,78374,-55,-259,968
05.10.2024 20:25:47:277,836,0,1,2,51878,109444,78374,-55,-256,965
05.10.2024 20:25:47:281,837,0,1,2,51877,109441,78376,-53,-253,964
05.10.2024 20:25:47:285,838,0,1,2,51872,109445,78373,-52,-256,960
05.10.2024 20:25:47:289,839,0,1,2,51861,109441,78376,-54,-256,961
05.10.2024 20:25:47:292,840,0,1,2,51859,109440,78372,-61,-257,962
05.10.2024 20:25:47:296,841,0,1,2,51855,109433,78376,-57,-250,964
05.10.2024 20:25:47:300,842,0,1,2,51853,109435,78377,-55,-260,966
05.10.2024 20:25:47:304,843,0,1,2,51849,109435,78374,-58,-249,966
05.10.2024 20:25:47:308,844,0,1,2,51848,109434,78380,-58,-249,969
05.10.2024 20:25:47:312,845,0,1,2,51840,109440,78376,-59,-256,961
05.10.2024 20:25:47:316,846,0,1,2,51837,109434,78379,-57,-247,961
05.10.2024 20:25:47:320,847,0,1,2,51838,109435,78378,-55,-252,966
05.10.2024 20:25:47:324,848,0,1,2,51831,109438,78379,-58,-253,960
05.10.2024 20:25:47:328,849,0,1,2,51827,109440,78382,-52,-251,966
05.10.2024 20:25:47:331,850,0,1,2,51835,109436,78380,-53,-249,958
05.10.2024 20:25:47:335,851,0,1,2,51832,109434,78383,-53,-251,968
05.10.2024 20:25:47:339,852,0,1,2,51826,109439,78385,-54,-249,960
05.10.2024 20:25:47:343,853,0,1,2,51834,109434,78378,-52,-246,961
05.10.2024 20:25:47:347,854,0,1,2,51823,109436,78379,-54,-247,961
05.10.2024 20:25:47:351,855,0,1,2,51826,109432,78381,-48,-248,963
05.10.2024 20:25:47:355,856,0,1,2,51831,109425,78378,-56,-253,963
05.10.2024 20:25:47:359,857,0,1,2,51826,109428,78377,-54,-250,959
05.10.2024 20:25:47:363,858,0,1,2,51829,109421,78374,-57,-254,965
05.10.2024 20:25:47:367,859,0,1,2,51828,109420,78372,-57,-254,965
05.10.2024 20:25:47:370,860,0,1,2,51833,109415,78371,-54,-251,961
05.10.2024 20:25:47:374,861,0,1,2,51838,109408,78367,-55,-250,973
05.10.2024 20:25:47:378,862,0,1,2,51840,109410,78362,-56,-253,965
05.10.2024 20:25:47:382,863,0,1,2,51832,109405,78361,-52,-256,961
05.10.2024 20:25:47:386,864,0,1,2,51839,109403,78358,-59,-252,961
05.10.2024 20:25:47:390,865,0,1,2,51835,109398,78357,-55,-251,961
05.10.2024 20:25:47:394,866,0,1,2,51842,109397,78352,-59,-251,967
05.10.2024 20:25:47:398,867,0,1,2,51839,109393,78354,-57,-254,964
05.10.2024 20:25:47:402,868,0,1,2,51847,109390,78348,-58,-257,965
05.10.2024 20:25:47:406,869,0,1,2,51849,109389,78350,-59,-252,965
05.10.2024 20:25:47:410,870,0,1,2,51852,109385,78343,-53,-257,960
05.10.2024 20:25:47:413,871,0,1,2,51848,109382,78345,-56,-260,964
05.10.2024 20:25:47:417,872,0,1,2,51850,109372,78343,-57,-259,962
05.10.2024 20:25:47:421,873,0,1,2,51855,109373,78337,-55,-257,962
05.10.2024 20:25:47:425,874,0,1,2,51853,109371,78341,-52,-253,963
05.10.2024 20:25:47:429,875,0,1,2,51853,109375,78334,-59,-257,968
05.10.2024 20:25:47:433,876,0,1,2,51855,109365,78338,-60,-253,967
05.10.2024 20:25:47:437,877,0,1,2,51863,109363,78327,-56,-251,968
05.10.2024 20:25:47:441,878,0,1,2,51858,109361,78332,-54,-253,965
05.10.2024 20:25:47:445,879,0,1,2,51864,109356,78325,-57,-250,966
05.10.2024 20:25:47:449,880,0,1,2,51867,109359,78325,-58,-257,959
05.10.2024 20:25:47:452,881,0,1,2,51867,109358,78329,-58,-254,964
05.10.2024 20:25:47:456,882,0,1,2,51870,109356,78324,-53,-247,961
05.10.2024 20:25:47:460,883,0,1,2,51873,109354,78328,-58,-257,967
05.10.2024 20:25:47:464,884,0,1,2,51869,109355,78322,-58,-257,967
05.10.2024 20:25:47:468,885,0,1,2,51868,109351,78316,-61,-251,965
05.10.2024 20:25:47:472,886,0,1,2,51874,109354,78318,-52,-250,963
05.10.2024 20:25:47:476,887,0,1,2,51871,109345,78322,-53,-255,961
05.10.2024 20:25:47:480,888,0,1,2,51871,109348,78319,-57,-252,964
05.10.2024 20:25:47:484,889,0,1,2,51872,109347,78314,-52,-251,964
05.10.2024 20:25:47:488,890,0,1,2,51874,109343,78312,-55,-254,967
05.10.2024 20:25:47:491,891,0,1,2,51877,109337,78316,-60,-256,962
05.10.2024 20:25:47:495,892,0,1,2,51872,109340,78309,-53,-251,963
05.10.2024 20:25:47:499,893,0,1,2,51880,109341,78309,-59,-256,965
05.10.2024 20:25:47:503,894,0,1,2,51872,109335,78305,-60,-258,966
05.10.2024 20:25:47:507,895,0,1,2,51874,109335,78311,-59,-250,968
05.10.2024 20:25:47:511,896,0,1,2,51873,109334,78306,-55,-248,966
05.10.2024 20:25:47:515,897,0,1,2,51874,109336,78307,-57,-249,964
05.10.2024 20:25:47:519,898,0,1,2,51869,109326,78304,-53,-255,964
05.10.2024 20:25:47:523,899,0,1,2,51873,109327,78297,-56,-257,965
05.10.2024 20:25:47:527,900,0,1,2,51871,109320,78294,-57,-253,968
05.10.2024 20:25:47:530,901,0,1,2,51869,109321,78295,-53,-247,966
05.10.2024 20:25:47:534,902,0,1,2,51873,109319,78293,-59,-250,967
05.10.2024 20:25:47:538,903,0,1,2,51866,109315,78286,-56,-246,963
05.10.2024 20:25:47:542,904,0,1,2,51872,109310,78288,-56,-244,963
05.10.2024 20:25:47:546,905,0,1,2,51872,109304,78285,-54,-244,964
05.10.2024 20:25:47:550,906,0,1,2,51871,109304,78279,-57,-251,966
05.10.2024 20:25:47:554,907,0,1,2,51870,109299,78276,-59,-252,969
05.10.2024 20:25:47:558,908,0,1,2,51871,109284,78272,-56,-263,963
05.10.2024 20:25:47:562,909,0,1,2,51872,109283,78268,-56,-263,963
05.10.2024 20:25:47:566,910,0,1,2,51873,109287,78264,-54,-254,960
05.10.2024 20:25:47:569,911,0,1,2,51868,109280,78261,-58,-254,967
05.10.2024 20:25:47:573,912,0,1,2,51874,109275,78261,-58,-254,965
05.10.2024 20:25:47:577,913,0,1,2,51874,109271,78258,-59,-249,967
05.10.2024 20:25:47:581,914,0,1,2,51870,109263,78256,-52,-258,964
05.10.2024 20:25:47:585,915,0,1,2,51868,109265,78249,-57,-253,958
05.10.2024 20:25:47:589,916,0,1,2,51870,109264,78249,-54,-255,966
05.10.2024 20:25:47:593,917,0,1,2,51867,109264,78251,-60,-255,968
05.10.2024 20:25:47:597,918,0,1,2,51870,109264,78251,-55,-248,969
05.10.2024 20:25:47:601,919,0,1,2,51870,109255,78247,-53,-249,964
05.10.2024 20:25:47:605,920,0,1,2,51867,109251,78246,-51,-250,968
05.10.2024 20:25:47:609,921,0,1,2,51869,109254,78239,-58,-251,966
05.10.2024 20:25:47:612,922,0,1,2,51876,109250,78237,-58,-252,962
05.10.2024 20:25:47:616,923,0,1,2,51871,109244,78236,-52,-256,967
05.10.2024 20:25:47:620,924,0,1,2,51874,109237,78234,-53,-255,967
05.10.2024 20:25:47:624,925,0,1,2,51879,109236,78228,-50,-253,963
05.10.2024 20:25:47:628,926,0,1,2,51887,109231,78228,-57,-251,960
05.10.2024 20:25:47:632,927,0,1,2,51886,109234,78225,-54,-250,968
05.10.2024 20:25:47:636,928,0,1,2,51886,109226,78220,-56,-251,966
05.10.2024 20:25:47:640,929,0,1,2,51886,109223,78218,-58,-250,964
05.10.2024 20:25:47:644,930,0,1,2,51889,109215,78220,-60,-256,970
05.10.2024 20:25:47:648,931,0,1,2,51898,109220,78215,-57,-256,961
05.10.2024 20:25:47:651,932,0,1,2,51892,109216,78207,-55,-252,970
05.10.2024 20:25:47:655,933,0,1,2,51897,109212,78211,-59,-253,964
05.10.2024 20:25:47:659,934,0,1,2,51904,109205,78200,-59,-253,964
05.10.2024 20:25:47:663,935,0,1,2,51907,109200,78207,-58,-255,964
05.10.2024 20:25:47:667,936,0,1,2,51911,109194,78197,-52,-255,963
05.10.2024 20:25:47:671,937,0,1,2,51915,109195,78200,-53,-250,964
05.10.2024 20:25:47:675,938,0,1,2,51921,109188,78198,-53,-249,970
05.10.2024 20:25:47:679,939,0,1,2,51921,109188,78196,-57,-258,963
05.10.2024 20:25:47:683,940,0,1,2,51932,109188,78192,-56,-252,967
05.10.2024 20:25:47:687,941,0,1,2,51928,109185,78192,-54,-256,970
05.10.2024 20:25:47:690,942,0,1,2,51931,109180,78187,-58,-254,966
05.10.2024 20:25:47:694,943,0,1,2,51943,109179,78182,-55,-254,964
05.10.2024 20:25:47:698,944,0,1,2,51941,109171,78183,-55,-257,966
05.10.2024 20:25:47:702,945,0,1,2,51946,109171,78186,-56,-256,962
05.10.2024 20:25:47:706,946,0,1,2,51955,109168,78178,-64,-252,969
05.10.2024 20:25:47:710,947,0,1,2,51958,109165,78178,-58,-257,968
05.10.2024 20:25:47:714,948,0,1,2,51965,109162,78181,-57,-256,962
05.10.2024 20:25:47:718,949,0,1,2,51962,109162,78175,-57,-254,963
05.10.2024 20:25:47:722,950,0,1,2,51969,109157,78177,-56,-256,964
05.10.2024 20:25:47:726,951,0,1,2,51971,109157,78172,-56,-250,968
05.10.2024 20:25:47:729,952,0,1,2,51973,109154,78172,-56,-251,963
05.10.2024 20:25:47:733,953,0,1,2,51976,109155,78168,-56,-249,956
05.10.2024 20:25:47:737,954,0,1,2,51982,109144,78167,-58,-249,965
05.10.2024 20:25:47:741,955,0,1,2,51986,109149,78166,-56,-246,963
05.10.2024 20:25:47:745,956,0,1,2,51993,109137,78160,-53,-248,967
05.10.2024 20:25:47:749,957,0,1,2,51996,109134,78158,-57,-244,964
05.10.2024 20:25:47:753,958,0,1,2,51997,109124,78156,-58,-244,967
05.10.2024 20:25:47:757,959,0,1,2,51999,109126,78154,-58,-244,967
05.10.2024 20:25:47:761,960,0,1,2,52008,109123,78151,-54,-252,962
05.10.2024 20:25:47:765,961,0,1,2,52006,109113,78144,-58,-255,963
05.10.2024 20:25:47:769,962,0,1,2,52017,109109,78139,-57,-253,964
05.10.2024 20:25:47:772,963,0,1,2,52020,109108,78137,-51,-256,958
05.10.2024 20:25:47:776,964,0,1,2,52016,109097,78134,-57,-253,965
05.10.2024 20:25:47:780,965,0,1,2,52018,109095,78131,-55,-254,958
05.10.2024 20:25:47:784,966,0,1,2,52031,109092,78129,-55,-257,961
05.10.2024 20:25:47:788,967,0,1,2,52030,109086,78120,-54,-256,968
05.10.2024 20:25:47:792,968,0,1,2,52038,109086,78120,-56,-256,962
05.10.2024 20:25:47:796,969,0,1,2,52033,109078,78117,-51,-252,972
05.10.2024 20:25:47:800,970,0,1,2,52039,109076,78109,-56,-253,961
05.10.2024 20:25:47:804,971,0,1,2,52035,109074,78109,-61,-250,966
05.10.2024 20:25:47:808,972,0,1,2,52047,109069,78111,-57,-253,968
05.10.2024 20:25:47:811,973,0,1,2,52049,109067,78104,-57,-257,963
05.10.2024 20:25:47:815,974,0,1,2,52054,109062,78110,-60,-251,966
05.10.2024 20:25:47:819,975,0,1,2,52050,109058,78098,-61,-251,964
05.10.2024 20:25:47:823,976,0,1,2,52057,109052,78094,-58,-252,966
05.10.2024 20:25:47:827,977,0,1,2,52062,109046,78094,-60,-253,966
05.10.2024 20:25:47:831,978,0,1,2,52062,109045,78083,-57,-251,964
05.10.2024 20:25:47:835,979,0,1,2,52066,109040,78085,-53,-256,966
05.10.2024 20:25:47:839,980,0,1,2,52066,109031,78082,-54,-256,965
05.10.2024 20:25:47:843,981,0,1,2,52076,109029,78083,-51,-259,963
05.10.2024 20:25:47:847,982,0,1,2,52073,109026,78079,-56,-258,959
05.10.2024 20:25:47:850,983,0,1,2,52077,109025,78072,-57,-254,957
05.10.2024 20:25:47:854,984,0,1,2,52076,109020,78068,-57,-254,957
05.10.2024 20:25:47:858,985,0,1,2,52073,109016,78070,-57,-251,968
05.10.2024 20:25:47:862,986,0,1,2,52078,109014,78068,-55,-253,967
05.10.2024 20:25:47:866,987,0,1,2,52085,109014,78063,-53,-249,966
05.10.2024 20:25:47:870,988,0,1,2,52087,109008,78060,-49,-251,969
05.10.2024 20:25:47:874,989,0,1,2,52091,109007,78060,-53,-253,964
05.10.2024 20:25:47:878,990,0,1,2,52093,108999,78052,-56,-251,961
05.10.2024 20:25:47:882,991,0,1,2,52088,108999,78053,-50,-254,967
05.10.2024 20:25:47:886,992,0,1,2,52094,108996,78044,-52,-248,962
05.10.2024 20:25:47:889,993,0,1,2,52095,108990,78043,-52,-248,967
05.10.2024 20:25:47:893,994,0,1,2,52103,108985,78040,-55,-253,968
05.10.2024 20:25:47:897,995,0,1,2,52100,108974,78035,-54,-252,969
05.10.2024 20:25:47:901,996,0,1,2,52102,108973,78028,-53,-248,964
05.10.2024 20:25:47:905,997,0,1,2,52110,108966,78028,-52,-253,966
05.10.2024 20:25:47:909,998,0,1,2,52107,108960,78020,-54,-254,963
05.10.2024 20:25:47:913,999,0,1,2,52109,108954,78013,-54,-258,970
05.10.2024 20:25:47:917,1000,0,1,2,52112,108947,78014,-55,-259,966
05.10.2024 20:25:47:921,1001,0,1,2,52110,108936,78002,-59,-258,967
05.10.2024 20:25:47:925,1002,0,1,2,52111,108930,78001,-57,-256,964
05.10.2024 20:25:47:929,1003,0,1,2,52108,108925,77998,-57,-257,959
05.10.2024 20:25:47:932,1004,0,1,2,52105,108917,77990,-61,-259,968
05.10.2024 20:25:47:936,1005,0,1,2,52104,108913,77995,-61,-261,963
05.10.2024 20:25:47:940,1006,0,1,2,52098,108909,77988,-58,-262,966
05.10.2024 20:25:47:944,1007,0,1,2,52096,108902,77983,-50,-261,964
05.10.2024 20:25:47:948,1008,0,1,2,52094,108898,77981,-60,-260,965
05.10.2024 20:25:47:952,1009,0,1,2,52094,108897,77983,-60,-260,965
05.10.2024 20:25:47:956,1010,0,1,2,52087,108899,77984,-54,-253,963
05.10.2024 20:25:47:960,1011,0,1,2,52083,108893,77978,-52,-258,961
05.10.2024 20:25:47:964,1012,0,1,2,52078,108888,77976,-55,-257,964
05.10.2024 20:25:47:968,1013,0,1,2,52077,108885,77974,-61,-255,966
05.10.2024 20:25:47:971,1014,0,1,2,52071,108884,77975,-58,-258,959
05.10.2024 20:25:47:975,1015,0,1,2,52064,108876,77974,-56,-252,972
05.10.2024 20:25:47:979,1016,0,1,2,52063,108878,77975,-57,-252,967
05.10.2024 20:25:47:983,1017,0,1,2,52058,108874,77974,-57,-248,970
05.10.2024 20:25:47:987,1018,0,1,2,52059,108872,77970,-55,-251,965
05.10.2024 20:25:47:991,1019,0,1,2,52049,108865,77970,-54,-259,968
05.10.2024 20:25:47:995,1020,0,1,2,52051,108862,77964,-57,-256,958
05.10.2024 20:25:47:999,1021,0,1,2,52047,108868,77966,-56,-247,968
05.10.2024 20:25:48:3,1022,0,1,2,52045,108861,77966,-58,-246,965
05.10.2024 20:25:48:7,1023,0,1,2,52042,108857,77960,-57,-246,961
05.10.2024 20:25:48:10,1024,0,1,2,52045,108859,77963,-50,-250,964
05.10.2024 20:25:48:14,1025,0,1,2,52045,108846,77962,-56,-254,963
05.10.2024 20:25:48:18,1026,0,1,2,52036,108846,77958,-53,-257,966
05.10.2024 20:25:48:22,1027,0,1,2,52045,108844,77956,-48,-255,965
05.10.2024 20:25:48:26,1028,0,1,2,52036,108840,77953,-59,-251,959
05.10.2024 20:25:48:30,1029,0,1,2,52038,108834,77945,-52,-251,966
05.10.2024 20:25:48:34,1030,0,1,2,52039,108828,77948,-53,-256,964
05.10.2024 20:25:48:38,1031,0,1,2,52043,108830,77948,-57,-254,964
05.10.2024 20:25:48:42,1032,0,1,2,52042,108825,77938,-54,-253,959
05.10.2024 20:25:48:46,1033,0,1,2,52039,108824,77941,-58,-254,967
05.10.2024 20:25:48:49,1034,0,1,2,52043,108823,77941,-58,-254,967
05.10.2024 20:25:48:53,1035,0,1,2,52045,108813,77937,-57,-190,964
05.10.2024 20:25:48:57,1036,0,1,2,52041,108813,77931,-60,-255,968
05.10.2024 20:25:48:61,1037,0,1,2,52044,108805,77925,-56,-255,963
05.10.2024 20:25:48:65,1038,0,1,2,52047,108802,77928,-58,-253,963
05.10.2024 20:25:48:69,1039,0,1,2,52048,108802,77926,-54,-256,963
05.10.2024 20:25:48:73,1040,0,1,2,52046,108792,77922,-57,-248,963
05.10.2024 20:25:48:77,1041,0,1,2,52052,108798,77926,-61,-252,970
05.10.2024 20:25:48:81,1042,0,1,2,52050,108789,77916,-58,-250,966
05.10.2024 20:25:48:85,1043,0,1,2,52057,108789,77917,-55,-251,962
05.10.2024 20:25:48:89,1044,0,1,2,52053,108783,77914,-62,-257,964
05.10.2024 20:25:48:92,1045,0,1,2,52054,108783,77911,-57,-264,966
05.10.2024 20:25:48:96,1046,0,1,2,52060,108787,77909,-59,-260,965
05.10.2024 20:25:48:100,1047,0,1,2,52058,108779,77911,-61,-255,959
05.10.2024 20:25:48:104,1048,0,1,2,52060,108780,77908,-60,-257,958
05.10.2024 20:25:48:108,1049,0,1,2,52063,108774,77908,-56,-255,960
05.10.2024 20:25:48:112,1050,0,1,2,52063,108776,77908,-58,-258,961
05.10.2024 20:25:48:116,1051,0,1,2,52064,108778,77910,-62,-253,966
05.10.2024 20:25:48:120,1052,0,1,2,52061,108773,77908,-59,-249,964
05.10.2024 20:25:48:124,1053,0,1,2,52064,108771,77906,-54,-256,965
05.10.2024 20:25:48:128,1054,0,1,2,52065,108772,77902,-53,-256,970
05.10.2024 20:25:48:131,1055,0,1,2,52067,108773,77907,-49,-261,962
05.10.2024 20:25:48:135,1056,0,1,2,52074,108769,77901,-55,-250,962
05.10.2024 20:25:48:139,1057,0,1,2,52067,108774,77910,-51,-247,965
05.10.2024 20:25:48:143,1058,0,1,2,52069,108773,77907,-57,-246,963
05.10.2024 20:25:48:147,1059,0,1,2,52067,108772,77903,-57,-246,963
05.10.2024 20:25:48:151,1060,0,1,2,52075,108771,77904,-54,-251,963
05.10.2024 20:25:48:155,1061,0,1,2,52079,108771,77903,-57,-247,964
05.10.2024 20:25:48:159,1062,0,1,2,52075,108766,77899,-61,-250,962
05.10.2024 20:25:48:163,1063,0,1,2,52079,108766,77899,-57,-255,965
05.10.2024 20:25:48:167,1064,0,1,2,52079,108759,77899,-60,-249,958
05.10.2024 20:25:48:170,1065,0,1,2,52082,108757,77894,-55,-251,968
05.10.2024 20:25:48:174,1066,0,1,2,52077,108749,77892,-56,-249,961
05.10.2024 20:25:48:178,1067,0,1,2,52079,108750,77889,-57,-252,960
05.10.2024 20:25:48:182,1068,0,1,2,52079,108748,77886,-60,-249,966
05.10.2024 20:25:48:186,1069,0,1,2,52078,108745,77886,-55,-251,968
05.10.2024 20:25:48:190,1070,0,1,2,52075,108737,77880,-58,-254,962
05.10.2024 20:25:48:194,1071,0,1,2,52073,108740,77884,-60,-255,965
05.10.2024 20:25:48:198,1072,0,1,2,52080,108734,77874,-57,-256,966
05.10.2024 20:25:48:202,1073,0,1,2,52073,108728,77872,-64,-248,964
05.10.2024 20:25:48:206,1074,0,1,2,52076,108723,77870,-50,-260,966
05.10.2024 20:25:48:209,1075,0,1,2,52080,108722,77869,-58,-248,964
05.10.2024 20:25:48:213,1076,0,1,2,52081,108719,77868,-59,-253,959
05.10.2024 20:25:48:217,1077,0,1,2,52076,108720,77859,-59,-254,962
05.10.2024 20:25:48:221,1078,0,1,2,52069,108720,77862,-57,-253,966
05.10.2024 20:25:48:225,1079,0,1,2,52071,108714,77856,-58,-256,970
05.10.2024 20:25:48:229,1080,0,1,2,52068,108714,77854,-52,-249,963
05.10.2024 20:25:48:233,1081,0,1,2,52061,108707,77854,-50,-257,967
05.10.2024 20:25:48:237,1082,0,1,2,52068,108703,77850,-51,-251,960
05.10.2024 20:25:48:241,1083,0,1,2,52064,108696,77848,-55,-256,966
05.10.2024 20:25:48:245,1084,0,1,2,52062,108697,77849,-55,-256,966
05.10.2024 20:25:48:248,1085,0,1,2,52058,108693,77845,-56,-256,964
05.10.2024 20:25:48:252,1086,0,1,2,52067,108689,77842,-57,-249,963
05.10.2024 20:25:48:256,1087,0,1,2,52059,108688,77836,-58,-254,966
05.10.2024 20:25:48:260,1088,0,1,2,52064,108682,77835,-53,-256,961
05.10.2024 20:25:48:264,1089,0,1,2,52058,108682,77831,-60,-257,966
05.10.2024 20:25:48:268,1090,0,1,2,52061,108675,77827,-56,-260,971
05.10.2024 20:25:48:272,1091,0,1,2,52066,108679,77828,-58,-254,969
05.10.2024 20:25:48:276,1092,0,1,2,52059,108673,77827,-55,-252,962
05.10.2024 20:25:48:280,1093,0,1,2,52063,108672,77823,-56,-248,962
05.10.2024 20:25:48:284,1094,0,1,2,52058,108678,77827,-54,-241,965
05.10.2024 20:25:48:288,1095,0,1,2,52062,108670,77825,-58,-247,967
05.10.2024 20:25:48:291,1096,0,1,2,52061,108668,77823,-52,-248,967
05.10.2024 20:25:48:295,1097,0,1,2,52057,108663,77817,-54,-252,965
05.10.2024 20:25:48:299,1098,0,1,2,52061,108658,77820,-54,-252,965
05.10.2024 20:25:48:303,1099,0,1,2,52052,108659,77817,-54,-253,957
05.10.2024 20:25:48:307,1100,0,1,2,52060,108657,77813,-54,-249,966
05.10.2024 20:25:48:311,1101,0,1,2,52056,108656,77808,-58,-253,964
05.10.2024 20:25:48:315,1102,0,1,2,52056,108659,77807,-64,-249,962
05.10.2024 20:25:48:319,1103,0,1,2,52061,108653,77809,-55,-246,967
05.10.2024 20:25:48:323,1104,0,1,2,52057,108650,77810,-56,-254,970
05.10.2024 20:25:48:327,1105,0,1,2,52060,108646,77803,-49,-259,962
05.10.2024 20:25:48:330,1106,0,1,2,52061,108642,77798,-54,-258,967
05.10.2024 20:25:48:334,1107,0,1,2,52058,108639,77797,-56,-260,972
05.10.2024 20:25:48:338,1108,0,1,2,52062,108635,77796,-56,-259,963
05.10.2024 20:25:48:342,1109,0,1,2,52062,108635,77790,-54,-262,964
05.10.2024 20:25:48:346,1110,0,1,2,52062,108630,77793,-54,-257,967
05.10.2024 20:25:48:350,1111,0,1,2,52064,108633,77788,-55,-257,967
05.10.2024 20:25:48:354,1112,0,1,2,52066,108630,77791,-53,-257,967
05.10.2024 20:25:48:358,1113,0,1,2,52070,108631,77788,-54,-257,966
05.10.2024 20:25:48:362,1114,0,1,2,52070,108626,77787,-52,-254,964
05.10.2024 20:25:48:366,1115,0,1,2,52073,108623,77783,-59,-252,965
05.10.2024 20:25:48:369,1116,0,1,2,52071,108623,77783,-54,-255,965
05.10.2024 20:25:48:373,1117,0,1,2,52069,108627,77788,-57,-249,964
05.10.2024 20:25:48:377,1118,0,1,2,52065,108622,77785,-60,-257,965
05.10.2024 20:25:48:381,1119,0,1,2,52072,108624,77783,-62,-249,964
05.10.2024 20:25:48:385,1120,0,1,2,52070,108627,77782,-60,-254,966
05.10.2024 20:25:48:389,1121,0,1,2,52073,108623,77783,-55,-256,971
05.10.2024 20:25:48:393,1122,0,1,2,52078,108618,77782,-58,-254,967
05.10.2024 20:25:48:397,1123,0,1,2,52080,108620,77780,-56,-253,965
05.10.2024 20:25:48:401,1124,0,1,2,52079,108621,77782,-61,-255,967
05.10.2024 20:25:48:405,1125,0,1,2,52077,108622,77775,-58,-258,963
05.10.2024 20:25:48:408,1126,0,1,2,52078,108618,77778,-55,-253,961
05.10.2024 20:25:48:412,1127,0,1,2,52077,108619,77769,-59,-258,966
05.10.2024 20:25:48:416,1128,0,1,2,52084,108617,77767,-58,-258,973
05.10.2024 20:25:48:420,1129,0,1,2,52085,108609,77768,-56,-257,963
05.10.2024 20:25:48:424,1130,0,1,2,52082,108615,77770,-51,-256,966
05.10.2024 20:25:48:428,1131,0,1,2,52084,108612,77767,-55,-254,963
05.10.2024 20:25:48:432,1132,0,1,2,52087,108607,77769,-54,-254,964
05.10.2024 20:25:48:436,1133,0,1,2,52091,108609,77761,-55,-252,966
05.10.2024 20:25:48:440,1134,0,1,2,52092,108608,77760,-50,-248,966
05.10.2024 20:25:48:444,1135,0,1,2,52098,108603,77765,-58,-250,966
05.10.2024 20:25:48:448,1136,0,1,2,52098,108603,77759,-52,-252,961
05.10.2024 20:25:48:451,1137,0,1,2,52106,108598,77756,-56,-253,962
05.10.2024 20:25:48:455,1138,0,1,2,52098,108597,77757,-60,-250,967
05.10.2024 20:25:48:459,1139,0,1,2,52108,108595,77756,-53,-249,969
05.10.2024 20:25:48:463,1140,0,1,2,52105,108592,77754,-52,-248,965
05.10.2024 20:25:48:467,1141,0,1,2,52113,108590,77750,-56,-247,967
05.10.2024 20:25:48:471,1142,0,1,2,52112,108588,77747,-55,-249,965
05.10.2024 20:25:48:475,1143,0,1,2,52107,108584,77740,-58,-252,964
05.10.2024 20:25:48:479,1144,0,1,2,52110,108576,77740,-56,-254,968
05.10.2024 20:25:48:483,1145,0,1,2,52115,108577,77740,-56,-257,962
05.10.2024 20:25:48:487,1146,0,1,2,52113,108577,77737,-51,-260,961
05.10.2024 20:25:48:490,1147,0,1,2,52118,108573,77735,-56,-256,968
05.10.2024 20:25:48:494,1148,0,1,2,52121,108575,77732,-60,-255,961
05.10.2024 20:25:48:498,1149,0,1,2,52116,108573,77728,-58,-259,968
05.10.2024 20:25:48:502,1150,0,1,2,52123,108567,77733,-55,-258,969
05.10.2024 20:25:48:506,1151,0,1,2,52126,108567,77725,-58,-256,961
05.10.2024 20:25:48:510,1152,0,1,2,52127,108565,77728,-57,-257,966
05.10.2024 20:25:48:514,1153,0,1,2,52131,108561,77725,-57,-254,964
05.10.2024 20:25:48:518,1154,0,1,2,52131,108561,77726,-59,-251,962
05.10.2024 20:25:48:522,1155,0,1,2,52130,108560,77719,-61,-257,965
05.10.2024 20:25:48:526,1156,0,1,2,52131,108558,77721,-56,-250,961
05.10.2024 20:25:48:529,1157,0,1,2,52132,108559,77718,-62,-247,962
05.10.2024 20:25:48:533,1158,0,1,2,52134,108560,77719,-55,-249,968
05.10.2024 20:25:48:537,1159,0,1,2,52135,108559,77711,-58,-246,959
05.10.2024 20:25:48:541,1160,0,1,2,52134,108552,77715,-58,-251,967
05.10.2024 20:25:48:545,1161,0,1,2,52138,108554,77708,-63,-251,971
05.10.2024 20:25:48:549,1162,0,1,2,52137,108550,77708,-56,-250,962
05.10.2024 20:25:48:553,1163,0,1,2,52137,108546,77709,-55,-251,964
05.10.2024 20:25:48:557,1164,0,1,2,52133,108538,77702,-54,-250,964
05.10.2024 20:25:48:561,1165,0,1,2,52141,108541,77695,-51,-247,963
05.10.2024 20:25:48:565,1166,0,1,2,52135,108534,77693,-56,-252,966
05.10.2024 20:25:48:568,1167,0,1,2,52143,108527,77690,-55,-250,967
05.10.2024 20:25:48:572,1168,0,1,2,52142,108526,77686,-52,-254,964
05.10.2024 20:25:48:576,1169,0,1,2,52139,108523,77682,-52,-253,965
05.10.2024 20:25:48:580,1170,0,1,2,52138,108520,77680,-53,-253,966
05.10.2024 20:25:48:584,1171,0,1,2,52142,108518,77674,-60,-256,968
05.10.2024 20:25:48:588,1172,0,1,2,52145,108507,77667,-50,-257,959
05.10.2024 20:25:48:592,1173,0,1,2,52152,108503,77663,-53,-254,960
05.10.2024 20:25:48:596,1174,0,1,2,52149,108496,77663,-52,-255,964
05.10.2024 20:25:48:600,1175,0,1,2,52146,108495,77654,-61,-258,965
05.10.2024 20:25:48:604,1176,0,1,2,52148,108490,77652,-57,-252,970
05.10.2024 20:25:48:608,1177,0,1,2,52149,108487,77652,-55,-256,965
05.10.2024 20:25:48:611,1178,0,1,2,52149,108479,77645,-56,-252,964
05.10.2024 20:25:48:615,1179,0,1,2,52151,108482,77641,-57,-254,964
05.10.2024 20:25:48:619,1180,0,1,2,52153,108471,77640,-59,-256,959
05.10.2024 20:25:48:623,1181,0,1,2,52154,108475,77638,-58,-264,966
05.10.2024 20:25:48:627,1182,0,1,2,52149,108471,77634,-56,-263,961
05.10.2024 20:25:48:631,1183,0,1,2,52148,108468,77633,-54,-265,964
05.10.2024 20:25:48:635,1184,0,1,2,52142,108468,77636,-52,-263,969
05.10.2024 20:25:48:639,1185,0,1,2,52139,108461,77629,-59,-259,963
05.10.2024 20:25:48:643,1186,0,1,2,52131,108462,77632,-59,-263,965
05.10.2024 20:25:48:647,1187,0,1,2,52135,108461,77636,-52,-258,962
05.10.2024 20:25:48:650,1188,0,1,2,52127,108465,77632,-63,-264,961
05.10.2024 20:25:48:654,1189,0,1,2,52123,108464,77635,-58,-265,962
05.10.2024 20:25:48:658,1190,0,1,2,52115,108465,77638,-53,-258,964
05.10.2024 20:25:48:662,1191,0,1,2,52114,108464,77635,-56,-259,962
05.10.2024 20:25:48:666,1192,0,1,2,52103,108468,77638,-51,-254,962
05.10.2024 20:25:48:670,1193,0,1,2,52101,108473,77638,-54,-255,955
05.10.2024 20:25:48:674,1194,0,1,2,52093,108465,77636,-58,-251,965
05.10.2024 20:25:48:678,1195,0,1,2,52091,108462,77635,-54,-258,966
05.10.2024 20:25:48:682,1196,0,1,2,52081,108466,77637,-57,-255,963
05.10.2024 20:25:48:686,1197,0,1,2,52083,108466,77639,-57,-252,963
05.10.2024 20:25:48:689,1198,0,1,2,52068,108473,77642,-57,-255,967
05.10.2024 20:25:48:693,1199,0,1,2,52060,108470,77640,-56,-249,965
05.10.2024 20:25:48:697,1200,0,1,2,52057,108464,77643,-55,-244,968
05.10.2024 20:25:48:701,1201,0,1,2,52047,108470,77639,-58,-249,965
05.10.2024 20:25:48:705,1202,0,1,2,52043,108464,77638,-57,-251,966
05.10.2024 20:25:48:709,1203,0,1,2,52042,108465,77632,-54,-248,965
05.10.2024 20:25:48:713,1204,0,1,2,52029,108459,77638,-57,-253,959
05.10.2024 20:25:48:717,1205,0,1,2,52028,108460,77634,-52,-254,963
05.10.2024 20:25:48:721,1206,0,1,2,52021,108458,77633,-55,-250,965
05.10.2024 20:25:48:725,1207,0,1,2,52018,108461,77634,-54,-252,966
05.10.2024 20:25:48:728,1208,0,1,2,52014,108455,77634,-56,-252,962
05.10.2024 20:25:48:732,1209,0,1,2,52001,108454,77630,-56,-257,964
05.10.2024 20:25:48:736,1210,0,1,2,52006,108452,77631,-55,-260,963
05.10.2024 20:25:48:740,1211,0,1,2,51998,108455,77626,-55,-260,965
05.10.2024 20:25:48:744,1212,0,1,2,51997,108453,77631,-56,-258,965
05.10.2024 20:25:48:748,1213,0,1,2,51999,108452,77626,-52,-254,967
05.10.2024 20:25:48:752,1214,0,1,2,51993,108453,77628,-50,-265,962
05.10.2024 20:25:48:756,1215,0,1,2,51991,108453,77621,-52,-254,961
05.10.2024 20:25:48:760,1216,0,1,2,51986,108451,77621,-48,-260,964
05.10.2024 20:25:48:764,1217,0,1,2,51985,108451,77622,-61,-262,962
05.10.2024 20:25:48:768,1218,0,1,2,51980,108451,77628,-55,-265,966
05.10.2024 20:25:48:771,1219,0,1,2,51982,108450,77621,-56,-258,962
05.10.2024 20:25:48:775,1220,0,1,2,51970,108453,77631,-59,-258,964
05.10.2024 20:25:48:779,1221,0,1,2,51975,108456,77625,-58,-258,966
05.10.2024 20:25:48:783,1222,0,1,2,51970,108457,77629,-49,-260,963
05.10.2024 20:25:48:787,1223,0,1,2,51968,108460,77627,-60,-254,960
05.10.2024 20:25:48:791,1224,0,1,2,51962,108458,77626,-60,-252,955
05.10.2024 20:25:48:795,1225,0,1,2,51960,108461,77624,-59,-255,965
05.10.2024 20:25:48:799,1226,0,1,2,51962,108461,77630,-55,-251,965
05.10.2024 20:25:48:803,1227,0,1,2,51962,108468,77624,-59,-257,961
05.10.2024 20:25:48:807,1228,0,1,2,51963,108460,77625,-55,-259,964
05.10.2024 20:25:48:810,1229,0,1,2,51961,108462,77626,-58,-254,957
05.10.2024 20:25:48:814,1230,0,1,2,51959,108460,77623,-55,-258,968
05.10.2024 20:25:48:818,1231,0,1,2,51955,108455,77625,-61,-260,961
05.10.2024 20:25:48:822,1232,0,1,2,51960,108457,77620,-61,-256,956
05.10.2024 20:25:48:826,1233,0,1,2,51953,108461,77624,-59,-262,964
05.10.2024 20:25:48:830,1234,0,1,2,51967,108459,77621,-55,-258,964
05.10.2024 20:25:48:834,1235,0,1,2,51958,108460,77622,-52,-251,967
05.10.2024 20:25:48:838,1236,0,1,2,51956,108460,77618,-50,-256,958
05.10.2024 20:25:48:842,1237,0,1,2,51963,108458,77625,-56,-256,972
05.10.2024 20:25:48:846,1238,0,1,2,51961,108464,77624,-58,-254,963
05.10.2024 20:25:48:849,1239,0,1,2,51960,108465,77619,-49,-250,964
05.10.2024 20:25:48:853,1240,0,1,2,51960,108461,77620,-52,-259,968
05.10.2024 20:25:48:857,1241,0,1,2,51962,108466,77626,-55,-256,962
05.10.2024 20:25:48:861,1242,0,1,2,51958,108470,77628,-53,-257,965
05.10.2024 20:25:48:865,1243,0,1,2,51958,108470,77629,-55,-250,966
05.10.2024 20:25:48:869,1244,0,1,2,51963,108466,77624,-57,-249,964
05.10.2024 20:25:48:873,1245,0,1,2,51956,108468,77624,-52,-255,961
05.10.2024 20:25:48:877,1246,0,1,2,51957,108468,77623,-53,-258,962
05.10.2024 20:25:48:881,1247,0,1,2,51960,108467,77626,-53,-254,962
05.10.2024 20:25:48:885,1248,0,1,2,51956,108470,77627,-56,-258,964
05.10.2024 20:25:48:888,1249,0,1,2,51953,108470,77621,-58,-251,965
05.10.2024 20:25:48:892,1250,0,1,2,51950,108467,77621,-58,-258,963
05.10.2024 20:25:48:896,1251,0,1,2,51947,108466,77622,-56,-255,966
05.10.2024 20:25:48:900,1252,0,1,2,51952,108462,77623,-56,-256,963
05.10.2024 20:25:48:904,1253,0,1,2,51953,108459,77619,-59,-264,964
05.10.2024 20:25:48:908,1254,0,1,2,51951,108463,77618,-57,-254,968
05.10.2024 20:25:48:912,1255,0,1,2,51950,108461,77613,-57,-253,962
05.10.2024 20:25:48:916,1256,0,1,2,51949,108461,77614,-51,-256,966
05.10.2024 20:25:48:920,1257,0,1,2,51944,108463,77614,-56,-257,958
05.10.2024 20:25:48:924,1258,0,1,2,51949,108456,77613,-53,-255,966
05.10.2024 20:25:48:927,1259,0,1,2,51946,108457,77613,-59,-253,959
05.10.2024 20:25:48:931,1260,0,1,2,51941,108456,77610,-53,-257,965
05.10.2024 20:25:48:935,1261,0,1,2,51937,108457,77610,-59,-253,970
05.10.2024 20:25:48:939,1262,0,1,2,51945,108452,77610,-49,-258,959
05.10.2024 20:25:48:943,1263,0,1,2,51938,108449,77605,-55,-253,970
05.10.2024 20:25:48:947,1264,0,1,2,51932,108448,77602,-58,-254,962
05.10.2024 20:25:48:951,1265,0,1,2,51943,108441,77603,-55,-255,969
05.10.2024 20:25:48:955,1266,0,1,2,51933,108441,77596,-52,-255,970
05.10.2024 20:25:48:959,1267,0,1,2,51934,108439,77596,-51,-256,963
05.10.2024 20:25:48:963,1268,0,1,2,51931,108427,77592,-62,-254,974
05.10.2024 20:25:48:967,1269,0,1,2,51932,108428,77589,-51,-256,965
05.10.2024 20:25:48:970,1270,0,1,2,51932,108422,77580,-54,-254,966
05.10.2024 20:25:48:974,1271,0,1,2,51931,108418,77576,-53,-256,968
05.10.2024 20:25:48:978,1272,0,1,2,51928,108413,77576,-57,-262,966
05.10.2024 20:25:48:982,1273,0,1,2,51930,108413,77578,-56,-257,969
05.10.2024 20:25:48:986,1274,0,1,2,51933,108408,77572,-53,-253,968
05.10.2024 20:25:48:990,1275,0,1,2,51933,108407,77572,-53,-246,966
05.10.2024 20:25:48:994,1276,0,1,2,51929,108404,77566,-54,-259,968
05.10.2024 20:25:48:998,1277,0,1,2,51927,108400,77561,-50,-260,967
05.10.2024 20:25:49:2,1278,0,1,2,51932,108392,77557,-53,-263,962
05.10.2024 20:25:49:6,1279,0,1,2,51930,108383,77554,-57,-263,961
05.10.2024 20:25:49:9,1280,0,1,2,51930,108384,77549,-50,-260,963
05.10.2024 20:25:49:13,1281,0,1,2,51930,108380,77551,-52,-263,963
05.10.2024 20:25:49:17,1282,0,1,2,51927,108379,77544,-53,-261,968
05.10.2024 20:25:49:21,1283,0,1,2,51933,108376,77542,-50,-263,962
05.10.2024 20:25:49:25,1284,0,1,2,51933,108375,77538,-54,-258,967
05.10.2024 20:25:49:29,1285,0,1,2,51926,108367,77538,-56,-259,962
05.10.2024 20:25:49:33,1286,0,1,2,51929,108375,77538,-56,-260,963
05.10.2024 20:25:49:37,1287,0,1,2,51935,108371,77532,-54,-255,965
05.10.2024 20:25:49:41,1288,0,1,2,51937,108365,77530,-51,-260,971
05.10.2024 20:25:49:45,1289,0,1,2,51939,108363,77535,-53,-260,962
05.10.2024 20:25:49:48,1290,0,1,2,51937,108369,77533,-58,-255,959
05.10.2024 20:25:49:52,1291,0,1,2,51934,108367,77527,-55,-254,961
05.10.2024 20:25:49:56,1292,0,1,2,51931,108360,77528,-56,-254,970
05.10.2024 20:25:49:60,1293,0,1,2,51926,108361,77528,-60,-254,963
05.10.2024 20:25:49:64,1294,0,1,2,51936,108360,77527,-54,-253,967
05.10.2024 20:25:49:68,1295,0,1,2,51933,108360,77527,-58,-259,959
05.10.2024 20:25:49:72,1296,0,1,2,51926,108360,77523,-54,-257,967
05.10.2024 20:25:49:76,1297,0,1,2,51928,108362,77521,-55,-257,966
05.10.2024 20:25:49:80,1298,0,1,2,51933,108361,77522,-52,-256,959
05.10.2024 20:25:49:84,1299,0,1,2,51928,108360,77518,-51,-255,967
05.10.2024 20:25:49:87,1300,0,1,2,51930,108359,77519,-59,-257,965
05.10.2024 20:25:49:91,1301,0,1,2,51935,108356,77517,-55,-257,962
05.10.2024 20:25:49:95,1302,0,1,2,51926,108350,77511,-54,-266,962
05.10.2024 20:25:49:99,1303,0,1,2,51932,108353,77511,-53,-264,963
05.10.2024 20:25:49:103,1304,0,1,2,51938,108349,77511,-50,-261,961
05.10.2024 20:25:49:107,1305,0,1,2,51930,108353,77511,-51,-262,959
05.10.2024 20:25:49:111,1306,0,1,2,51933,108348,77510,-57,-259,966
05.10.2024 20:25:49:115,1307,0,1,2,51935,108353,77510,-59,-260,966
05.10.2024 20:25:49:119,1308,0,1,2,51935,108357,77505,-54,-260,961
05.10.2024 20:25:49:123,1309,0,1,2,51936,108354,77504,-50,-260,966
05.10.2024 20:25:49:127,1310,0,1,2,51928,108355,77510,-55,-261,967
05.10.2024 20:25:49:130,1311,0,1,2,51935,108355,77512,-54,-259,965
05.10.2024 20:25:49:134,1312,0,1,2,51933,108354,77510,-56,-256,958
05.10.2024 20:25:49:138,1313,0,1,2,51932,108357,77513,-51,-249,964
05.10.2024 20:25:49:142,1314,0,1,2,51930,108362,77512,-54,-251,968
05.10.2024 20:25:49:146,1315,0,1,2,51927,108362,77512,-61,-245,970
05.10.2024 20:25:49:150,1316,0,1,2,51932,108364,77509,-51,-250,966
05.10.2024 20:25:49:154,1317,0,1,2,51927,108361,77511,-53,-257,967
05.10.2024 20:25:49:158,1318,0,1,2,51934,108356,77510,-51,-256,967
05.10.2024 20:25:49:162,1319,0,1,2,51936,108360,77508,-50,-261,967
05.10.2024 20:25:49:166,1320,0,1,2,51933,108358,77509,-52,-257,963
05.10.2024 20:25:49:169,1321,0,1,2,51932,108360,77506,-52,-258,967
05.10.2024 20:25:49:173,1322,0,1,2,51929,108358,77506,-57,-257,966
05.10.2024 20:25:49:177,1323,0,1,2,51934,108361,77506,-56,-259,963
05.10.2024 20:25:49:181,1324,0,1,2,51933,108355,77500,-53,-259,966
05.10.2024 20:25:49:185,1325,0,1,2,51936,108360,77502,-53,-264,962
05.10.2024 20:25:49:189,1326,0,1,2,51945,108354,77502,-50,-261,959
05.10.2024 20:25:49:193,1327,0,1,2,51943,108360,77498,-55,-262,961
05.10.2024 20:25:49:197,1328,0,1,2,51944,108358,77506,-53,-258,965
05.10.2024 20:25:49:201,1329,0,1,2,51943,108352,77499,-55,-259,969
05.10.2024 20:25:49:205,1330,0,1,2,51946,108363,77502,-59,-250,968
05.10.2024 20:25:49:208,1331,0,1,2,51946,108358,77497,-54,-256,962
05.10.2024 20:25:49:212,1332,0,1,2,51944,108358,77501,-54,-261,962
05.10.2024 20:25:49:216,1333,0,1,2,51949,108362,77504,-52,-257,962
05.10.2024 20:25:49:220,1334,0,1,2,51945,108360,77501,-57,-257,960
05.10.2024 20:25:49:224,1335,0,1,2,51952,108362,77504,-53,-249,963
05.10.2024 20:25:49:228,1336,0,1,2,51949,108359,77506,-56,-253,965
05.10.2024 20:25:49:232,1337,0,1,2,51953,108360,77501,-53,-254,964
05.10.2024 20:25:49:236,1338,0,1,2,51957,108366,77497,-52,-250,964
05.10.2024 20:25:49:240,1339,0,1,2,51948,108365,77497,-56,-254,965
05.10.2024 20:25:49:244,1340,0,1,2,51952,108355,77498,-52,-258,963
05.10.2024 20:25:49:247,1341,0,1,2,51958,108355,77493,-54,-257,957
05.10.2024 20:25:49:251,1342,0,1,2,51960,108353,77492,-53,-257,966
05.10.2024 20:25:49:255,1343,0,1,2,51964,108351,77487,-44,-258,967
05.10.2024 20:25:49:259,1344,0,1,2,51960,108351,77488,-53,-255,967
05.10.2024 20:25:49:263,1345,0,1,2,51961,108353,77484,-45,-257,967
05.10.2024 20:25:49:267,1346,0,1,2,51969,108345,77483,-51,-262,965
05.10.2024 20:25:49:271,1347,0,1,2,51968,108345,77480,-52,-261,961
05.10.2024 20:25:49:275,1348,0,1,2,51964,108344,77476,-48,-263,968
05.10.2024 20:25:49:279,1349,0,1,2,51971,108341,77479,-51,-262,962
05.10.2024 20:25:49:283,1350,0,1,2,51969,108337,77479,-51,-260,969
05.10.2024 20:25:49:287,1351,0,1,2,51972,108342,77474,-51,-262,964
05.10.2024 20:25:49:290,1352,0,1,2,51977,108335,77475,-49,-261,967
05.10.2024 20:25:49:294,1353,0,1,2,51974,108340,77471,-59,-262,965
05.10.2024 20:25:49:298,1354,0,1,2,51974,108333,77471,-57,-258,960
05.10.2024 20:25:49:302,1355,0,1,2,51970,108334,77476,-56,-263,960
05.10.2024 20:25:49:306,1356,0,1,2,51965,108334,77472,-54,-259,967
05.10.2024 20:25:49:310,1357,0,1,2,51976,108330,77470,-57,-264,967
05.10.2024 20:25:49:314,1358,0,1,2,51964,108331,77471,-59,-259,964
05.10.2024 20:25:49:318,1359,0,1,2,51969,108325,77467,-51,-265,964
05.10.2024 20:25:49:322,1360,0,1,2,51963,108326,77468,-53,-262,964
05.10.2024 20:25:49:326,1361,0,1,2,51959,108329,77468,-55,-259,966
05.10.2024 20:25:49:329,1362,0,1,2,51962,108329,77470,-54,-254,963
05.10.2024 20:25:49:333,1363,0,1,2,51951,108329,77470,-53,-255,970
05.10.2024 20:25:49:337,1364,0,1,2,51947,108331,77469,-53,-252,964
05.10.2024 20:25:49:341,1365,0,1,2,51943,108325,77470,-52,-253,962
05.10.2024 20:25:49:345,1366,0,1,2,51936,108324,77467,-57,-254,958
05.10.2024 20:25:49:349,1367,0,1,2,51935,108324,77471,-56,-258,957
05.10.2024 20:25:49:353,1368,0,1,2,51929,108326,77469,-57,-260,961
05.10.2024 20:25:49:357,1369,0,1,2,51920,108317,77468,-59,-259,962
05.10.2024 20:25:49:361,1370,0,1,2,51920,108322,77468,-56,-256,962
05.10.2024 20:25:49:365,1371,0,1,2,51911,108322,77467,-55,-253,964
05.10.2024 20:25:49:368,1372,0,1,2,51915,108320,77468,-53,-262,961
05.10.2024 20:25:49:372,1373,0,1,2,51905,108311,77463,-55,-257,966
05.10.2024 20:25:49:376,1374,0,1,2,51896,108317,77461,-57,-263,965
05.10.2024 20:25:49:380,1375,0,1,2,51900,108310,77468,-54,-258,962
05.10.2024 20:25:49:384,1376,0,1,2,51888,108316,77464,-47,-256,960
05.10.2024 20:25:49:388,1377,0,1,2,51884,108308,77462,-47,-257,960
05.10.2024 20:25:49:392,1378,0,1,2,51883,108311,77464,-49,-256,965
05.10.2024 20:25:49:396,1379,0,1,2,51879,108308,77459,-51,-257,957
05.10.2024 20:25:49:400,1380,0,1,2,51874,108312,77463,-50,-249,966
05.10.2024 20:25:49:404,1381,0,1,2,51870,108305,77461,-49,-260,965
05.10.2024 20:25:49:407,1382,0,1,2,51868,108305,77462,-57,-250,964
05.10.2024 20:25:49:411,1383,0,1,2,51862,108301,77455,-50,-252,962
05.10.2024 20:25:49:415,1384,0,1,2,51864,108304,77460,-53,-253,962
05.10.2024 20:25:49:419,1385,0,1,2,51862,108303,77454,-56,-255,962
05.10.2024 20:25:49:423,1386,0,1,2,51862,108300,77453,-47,-252,965
05.10.2024 20:25:49:427,1387,0,1,2,51855,108294,77452,-51,-258,961
05.10.2024 20:25:49:431,1388,0,1,2,51856,108296,77451,-49,-255,962
05.10.2024 20:25:49:435,1389,0,1,2,51857,108292,77450,-49,-259,961
05.10.2024 20:25:49:439,1390,0,1,2,51863,108283,77445,-50,-257,965
05.10.2024 20:25:49:443,1391,0,1,2,51859,108291,77439,-54,-260,966
05.10.2024 20:25:49:447,1392,0,1,2,51857,108285,77442,-52,-261,963
05.10.2024 20:25:49:450,1393,0,1,2,51850,108278,77442,-54,-263,963
05.10.2024 20:25:49:454,1394,0,1,2,51854,108285,77444,-60,-263,960
05.10.2024 20:25:49:458,1395,0,1,2,51856,108288,77446,-55,-260,962
05.10.2024 20:25:49:462,1396,0,1,2,51848,108282,77445,-55,-260,964
05.10.2024 20:25:49:466,1397,0,1,2,51850,108291,77442,-60,-259,961
05.10.2024 20:25:49:470,1398,0,1,2,51854,108289,77443,-51,-258,962
05.10.2024 20:25:49:474,1399,0,1,2,51856,108289,77442,-57,-262,970
05.10.2024 20:25:49:478,1400,0,1,2,51859,108294,77445,-54,-264,962
05.10.2024 20:25:49:482,1401,0,1,2,51858,108292,77444,-55,-259,971
05.10.2024 20:25:49:486,1402,0,1,2,51855,108296,77447,-56,-258,962
05.10.2024 20:25:49:489,1403,0,1,2,51852,108295,77445,-57,-257,966
05.10.2024 20:25:49:493,1404,0,1,2,51863,108296,77449,-54,-256,962
05.10.2024 20:25:49:497,1405,0,1,2,51857,108300,77452,-48,-256,964
05.10.2024 20:25:49:501,1406,0,1,2,51860,108305,77448,-57,-257,961
05.10.2024 20:25:49:505,1407,0,1,2,51865,108305,77452,-51,-251,963
05.10.2024 20:25:49:509,1408,0,1,2,51869,108303,77451,-57,-251,961
05.10.2024 20:25:49:513,1409,0,1,2,51867,108308,77453,-55,-257,965
05.10.2024 20:25:49:517,1410,0,1,2,51874,108305,77455,-52,-259,959
05.10.2024 20:25:49:521,1411,0,1,2,51867,108305,77451,-51,-259,969
05.10.2024 20:25:49:525,1412,0,1,2,51868,108306,77449,-49,-254,961
05.10.2024 20:25:49:528,1413,0,1,2,51868,108311,77451,-54,-258,965
05.10.2024 20:25:49:532,1414,0,1,2,51872,108311,77455,-52,-256,967
05.10.2024 20:25:49:536,1415,0,1,2,51866,108310,77457,-51,-257,967
05.10.2024 20:25:49:540,1416,0,1,2,51866,108312,77456,-56,-257,965
05.10.2024 20:25:49:544,1417,0,1,2,51871,108316,77455,-53,-261,966
05.10.2024 20:25:49:548,1418,0,1,2,51870,108315,77458,-55,-254,959
05.10.2024 20:25:49:552,1419,0,1,2,51875,108315,77453,-51,-254,961
05.10.2024 20:25:49:556,1420,0,1,2,51876,108311,77451,-56,-260,963
05.10.2024 20:25:49:560,1421,0,1,2,51873,108315,77454,-55,-255,960
05.10.2024 20:25:49:564,1422,0,1,2,51879,108318,77456,-54,-259,963
05.10.2024 20:25:49:567,1423,0,1,2,51878,108310,77458,-48,-263,960
05.10.2024 20:25:49:571,1424,0,1,2,51876,108317,77457,-54,-254,966
05.10.2024 20:25:49:575,1425,0,1,2,51877,108310,77453,-56,-251,967
05.10.2024 20:25:49:579,1426,0,1,2,51868,108315,77454,-53,-253,966
05.10.2024 20:25:49:583,1427,0,1,2,51881,108315,77452,-56,-255,968
05.10.2024 20:25:49:587,1428,0,1,2,51878,108310,77451,-58,-257,964
05.10.2024 20:25:49:591,1429,0,1,2,51878,108310,77448,-54,-261,967
05.10.2024 20:25:49:595,1430,0,1,2,51873,108306,77444,-52,-256,963
05.10.2024 20:25:49:599,1431,0,1,2,51881,108302,77447,-54,-255,964
05.10.2024 20:25:49:603,1432,0,1,2,51879,108304,77448,-61,-254,960
05.10.2024 20:25:49:606,1433,0,1,2,51874,108305,77451,-57,-252,963
05.10.2024 20:25:49:610,1434,0,1,2,51869,108307,77443,-57,-251,966
05.10.2024 20:25:49:614,1435,0,1,2,51879,108298,77444,-57,-256,958
05.10.2024 20:25:49:618,1436,0,1,2,51875,108298,77445,-53,-261,960
05.10.2024 20:25:49:622,1437,0,1,2,51877,108296,77441,-52,-260,956
05.10.2024 20:25:49:626,1438,0,1,2,51878,108294,77439,-49,-258,963
05.10.2024 20:25:49:630,1439,0,1,2,51875,108291,77437,-59,-257,959
05.10.2024 20:25:49:634,1440,0,1,2,51877,108292,77436,-51,-257,967
05.10.2024 20:25:49:638,1441,0,1,2,51870,108294,77436,-53,-262,968
05.10.2024 20:25:49:642,1442,0,1,2,51876,108287,77430,-53,-261,964
05.10.2024 20:25:49:646,1443,0,1,2,51876,108287,77431,-52,-260,961
05.10.2024 20:25:49:649,1444,0,1,2,51872,108285,77430,-55,-259,959
05.10.2024 20:25:49:653,1445,0,1,2,51879,108285,77428,-51,-259,962
05.10.2024 20:25:49:657,1446,0,1,2,51874,108286,77429,-54,-255,967
05.10.2024 20:25:49:661,1447,0,1,2,51880,108292,77434,-55,-255,961
05.10.2024 20:25:49:665,1448,0,1,2,51882,108286,77430,-50,-254,962
05.10.2024 20:25:49:669,1449,0,1,2,51879,108289,77430,-50,-259,965
05.10.2024 20:25:49:673,1450,0,1,2,51878,108287,77428,-49,-255,963
05.10.2024 20:25:49:677,1451,0,1,2,51881,108287,77429,-50,-254,966
05.10.2024 20:25:49:681,1452,0,1,2,51872,108285,77427,-57,-253,967
05.10.2024 20:25:49:685,1453,0,1,2,51879,108288,77425,-50,-257,971
05.10.2024 20:25:49:688,1454,0,1,2,51877,108277,77429,-51,-256,968
05.10.2024 20:25:49:692,1455,0,1,2,51885,108283,77424,-48,-251,968
05.10.2024 20:25:49:696,1456,0,1,2,51885,108281,77425,-55,-254,962
05.10.2024 20:25:49:700,1457,0,1,2,51883,108282,77422,-54,-257,965
05.10.2024 20:25:49:704,1458,0,1,2,51885,108279,77421,-52,-258,960
05.10.2024 20:25:49:708,1459,0,1,2,51887,108277,77421,-49,-263,967
05.10.2024 20:25:49:712,1460,0,1,2,51888,108276,77428,-58,-255,961
05.10.2024 20:25:49:716,1461,0,1,2,51892,108277,77417,-47,-254,961
05.10.2024 20:25:49:720,1462,0,1,2,51889,108277,77415,-54,-256,961
05.10.2024 20:25:49:724,1463,0,1,2,51899,108273,77422,-55,-263,960
05.10.2024 20:25:49:727,1464,0,1,2,51897,108270,77414,-56,-258,966
05.10.2024 20:25:49:731,1465,0,1,2,51892,108270,77417,-53,-264,963
05.10.2024 20:25:49:735,1466,0,1,2,51897,108274,77418,-55,-261,966
05.10.2024 20:25:49:739,1467,0,1,2,51900,108275,77422,-53,-263,965
05.10.2024 20:25:49:743,1468,0,1,2,51904,108271,77419,-54,-262,964
05.10.2024 20:25:49:747,1469,0,1,2,51902,108277,77413,-53,-262,964
05.10.2024 20:25:49:751,1470,0,1,2,51900,108276,77418,-54,-264,962
05.10.2024 20:25:49:755,1471,0,1,2,51910,108271,77416,-51,-257,960
05.10.2024 20:25:49:759,1472,0,1,2,51906,108277,77413,-47,-264,969
05.10.2024 20:25:49:763,1473,0,1,2,51908,108280,77420,-52,-259,959
05.10.2024 20:25:49:766,1474,0,1,2,51910,108279,77422,-51,-254,967
05.10.2024 20:25:49:770,1475,0,1,2,51911,108284,77418,-51,-255,963
05.10.2024 20:25:49:774,1476,0,1,2,51912,108286,77418,-55,-252,964
05.10.2024 20:25:49:778,1477,0,1,2,51919,108283,77420,-47,-252,964
05.10.2024 20:25:49:782,1478,0,1,2,51920,108279,77424,-52,-256,964
05.10.2024 20:25:49:786,1479,0,1,2,51928,108283,77419,-54,-256,961
05.10.2024 20:25:49:790,1480,0,1,2,51926,108280,77417,-54,-260,965
05.10.2024 20:25:49:794,1481,0,1,2,51929,108285,77420,-51,-258,965
05.10.2024 20:25:49:798,1482,0,1,2,51925,108281,77416,-50,-260,959
05.10.2024 20:25:49:802,1483,0,1,2,51937,108281,77423,-50,-258,964
05.10.2024 20:25:49:806,1484,0,1,2,51935,108282,77415,-54,-253,964
05.10.2024 20:25:49:809,1485,0,1,2,51933,108284,77417,-55,-263,960
05.10.2024 20:25:49:813,1486,0,1,2,51939,108279,77417,-55,-258,961
05.10.2024 20:25:49:817,1487,0,1,2,51941,108285,77414,-53,-258,970
05.10.2024 20:25:49:821,1488,0,1,2,51950,108282,77417,-54,-252,968
05.10.2024 20:25:49:825,1489,0,1,2,51953,108283,77417,-56,-256,963
05.10.2024 20:25:49:829,1490,0,1,2,51953,108283,77419,-58,-254,964
05.10.2024 20:25:49:833,1491,0,1,2,51955,108281,77419,-52,-255,966
05.10.2024 20:25:49:837,1492,0,1,2,51957,108282,77421,-53,-257,961
05.10.2024 20:25:49:841,1493,0,1,2,51963,108282,77418,-56,-257,962
05.10.2024 20:25:49:845,1494,0,1,2,51962,108286,77413,-54,-263,960
05.10.2024 20:25:49:848,1495,0,1,2,51969,108287,77417,-54,-266,965
05.10.2024 20:25:49:852,1496,0,1,2,51967,108285,77414,-58,-253,965
05.10.2024 20:25:49:856,1497,0,1,2,51972,108280,77411,-54,-256,959
05.10.2024 20:25:49:860,1498,0,1,2,51975,108278,77413,-53,-261,968
05.10.2024 20:25:49:864,1499,0,1,2,51981,108280,77415,-49,-257,960
05.10.2024 20:25:49:868,1500,0,1,2,51987,108278,77413,-51,-260,962
05.10.2024 20:25:49:872,1501,0,1,2,51989,108281,77415,-53,-259,961
05.10.2024 20:25:49:876,1502,0,1,2,51996,108284,77420,-57,-255,965
05.10.2024 20:25:49:880,1503,0,1,2,51992,108284,77416,-46,-253,970
05.10.2024 20:25:49:884,1504,0,1,2,51989,108288,77416,-50,-252,965
05.10.2024 20:25:49:887,1505,0,1,2,51997,108293,77420,-53,-251,965
05.10.2024 20:25:49:891,1506,0,1,2,51998,108291,77415,-54,-245,963
05.10.2024 20:25:49:895,1507,0,1,2,52000,108288,77416,-57,-253,959
05.10.2024 20:25:49:899,1508,0,1,2,52004,108288,77414,-54,-255,956
05.10.2024 20:25:49:903,1509,0,1,2,52006,108287,77410,-54,-249,964
05.10.2024 20:25:49:907,1510,0,1,2,52011,108278,77408,-52,-261,957
05.10.2024 20:25:49:911,1511,0,1,2,52018,108273,77407,-51,-260,967
05.10.2024 20:25:49:915,1512,0,1,2,52022,108272,77401,-52,-256,962
05.10.2024 20:25:49:919,1513,0,1,2,52030,108272,77401,-51,-257,964
05.10.2024 20:25:49:923,1514,0,1,2,52024,108267,77397,-55,-254,963
05.10.2024 20:25:49:926,1515,0,1,2,52024,108263,77396,-53,-260,963
05.10.2024 20:25:49:930,1516,0,1,2,52034,108263,77394,-59,-260,970
05.10.2024 20:25:49:934,1517,0,1,2,52035,108263,77394,-53,-261,963
05.10.2024 20:25:49:938,1518,0,1,2,52035,108262,77390,-55,-267,959
05.10.2024 20:25:49:942,1519,0,1,2,52034,108257,77394,-56,-261,965
05.10.2024 20:25:49:946,1520,0,1,2,52041,108262,77396,-60,-263,963
05.10.2024 20:25:49:950,1521,0,1,2,52040,108260,77394,-54,-257,963
05.10.2024 20:25:49:954,1522,0,1,2,52040,108263,77392,-53,-261,968
05.10.2024 20:25:49:958,1523,0,1,2,52038,108262,77388,-58,-262,967
05.10.2024 20:25:49:962,1524,0,1,2,52034,108258,77391,-59,-261,965
05.10.2024 20:25:49:966,1525,0,1,2,52034,108258,77394,-59,-257,962
05.10.2024 20:25:49:969,1526,0,1,2,52032,108260,77394,-53,-262,960
05.10.2024 20:25:49:973,1527,0,1,2,52032,108261,77394,-60,-261,964
05.10.2024 20:25:49:977,1528,0,1,2,52034,108255,77396,-55,-258,960
05.10.2024 20:25:49:981,1529,0,1,2,52021,108255,77396,-53,-257,964
05.10.2024 20:25:49:985,1530,0,1,2,52027,108262,77395,-55,-257,961
05.10.2024 20:25:49:989,1531,0,1,2,52023,108261,77394,-55,-258,960
05.10.2024 20:25:49:993,1532,0,1,2,52015,108259,77399,-58,-256,962
05.10.2024 20:25:49:997,1533,0,1,2,52016,108264,77404,-57,-255,965
05.10.2024 20:25:50:1,1534,0,1,2,52009,108263,77401,-56,-253,964
05.10.2024 20:25:50:5,1535,0,1,2,52008,108258,77401,-51,-261,969
05.10.2024 20:25:50:8,1536,0,1,2,52000,108263,77402,-58,-257,966
05.10.2024 20:25:50:12,1537,0,1,2,51995,108256,77399,-51,-263,964
05.10.2024 20:25:50:16,1538,0,1,2,51996,108257,77406,-51,-257,962
05.10.2024 20:25:50:20,1539,0,1,2,51992,108256,77402,-56,-259,962
05.10.2024 20:25:50:24,1540,0,1,2,51980,108257,77400,-56,-257,963
05.10.2024 20:25:50:28,1541,0,1,2,51982,108256,77401,-50,-258,968
05.10.2024 20:25:50:32,1542,0,1,2,51981,108253,77399,-52,-253,960
05.10.2024 20:25:50:36,1543,0,1,2,51974,108256,77402,-54,-251,963
05.10.2024 20:25:50:40,1544,0,1,2,51975,108249,77401,-50,-253,963
05.10.2024 20:25:50:44,1545,0,1,2,51965,108254,77403,-50,-257,963
05.10.2024 20:25:50:47,1546,0,1,2,51968,108257,77403,-51,-250,964
05.10.2024 20:25:50:51,1547,0,1,2,51965,108254,77400,-49,-254,971
05.10.2024 20:25:50:55,1548,0,1,2,51959,108252,77402,-53,-250,960
05.10.2024 20:25:50:59,1549,0,1,2,51956,108253,77401,-53,-250,962
05.10.2024 20:25:50:63,1550,0,1,2,51959,108250,77403,-52,-252,966
05.10.2024 20:25:50:67,1551,0,1,2,51958,108256,77397,-55,-253,962
05.10.2024 20:25:50:71,1552,0,1,2,51953,108252,77402,-52,-258,966
05.10.2024 20:25:50:75,1553,0,1,2,51956,108248,77398,-60,-257,962
05.10.2024 20:25:50:79,1554,0,1,2,51952,108244,77394,-54,-259,962
05.10.2024 20:25:50:83,1555,0,1,2,51957,108248,77395,-58,-256,965
05.10.2024 20:25:50:86,1556,0,1,2,51962,108246,77393,-54,-256,960
05.10.2024 20:25:50:90,1557,0,1,2,51958,108242,77395,-54,-258,967
05.10.2024 20:25:50:94,1558,0,1,2,51958,108242,77396,-57,-254,961
05.10.2024 20:25:50:98,1559,0,1,2,51961,108242,77394,-50,-264,956
05.10.2024 20:25:50:102,1560,0,1,2,51960,108240,77392,-58,-261,963
05.10.2024 20:25:50:106,1561,0,1,2,51967,108244,77396,-57,-263,964
05.10.2024 20:25:50:110,1562,0,1,2,51969,108243,77395,-57,-265,961
05.10.2024 20:25:50:114,1563,0,1,2,51968,108236,77395,-58,-256,968
05.10.2024 20:25:50:118,1564,0,1,2,51966,108243,77394,-57,-253,966
05.10.2024 20:25:50:122,1565,0,1,2,51974,108247,77393,-56,-260,961
05.10.2024 20:25:50:126,1566,0,1,2,51970,108246,77390,-54,-259,968
05.10.2024 20:25:50:129,1567,0,1,2,51973,108245,77396,-56,-263,969
05.10.2024 20:25:50:133,1568,0,1,2,51975,108250,77396,-53,-262,965
05.10.2024 20:25:50:137,1569,0,1,2,51982,108251,77398,-55,-263,965
05.10.2024 20:25:50:141,1570,0,1,2,51979,108248,77399,-55,-261,958
05.10.2024 20:25:50:145,1571,0,1,2,51988,108257,77401,-56,-262,964
05.10.2024 20:25:50:149,1572,0,1,2,51987,108252,77402,-58,-251,960
05.10.2024 20:25:50:153,1573,0,1,2,51987,108259,77408,-50,-261,964
05.10.2024 20:25:50:157,1574,0,1,2,51989,108260,77406,-56,-257,961
05.10.2024 20:25:50:161,1575,0,1,2,51989,108267,77412,-50,-254,963
05.10.2024 20:25:50:165,1576,0,1,2,51992,108268,77411,-55,-255,961
05.10.2024 20:25:50:168,1577,0,1,2,51994,108272,77418,-55,-251,966
05.10.2024 20:25:50:172,1578,0,1,2,51995,108275,77419,-59,-253,962
05.10.2024 20:25:50:176,1579,0,1,2,51997,108280,77422,-56,-258,965
05.10.2024 20:25:50:180,1580,0,1,2,52001,108279,77422,-56,-252,959
05.10.2024 20:25:50:184,1581,0,1,2,52001,108279,77420,-51,-249,968
05.10.2024 20:25:50:188,1582,0,1,2,52001,108285,77421,-53,-252,965
05.10.2024 20:25:50:192,1583,0,1,2,52002,108286,77424,-57,-256,969
05.10.2024 20:25:50:196,1584,0,1,2,51999,108285,77424,-54,-252,967
05.10.2024 20:25:50:200,1585,0,1,2,52003,108284,77424,-57,-254,963
05.10.2024 20:25:50:204,1586,0,1,2,52004,108279,77422,-56,-250,964
05.10.2024 20:25:50:207,1587,0,1,2,52009,108282,77418,-56,-250,963
05.10.2024 20:25:50:211,1588,0,1,2,52008,108281,77418,-56,-254,966
05.10.2024 20:25:50:215,1589,0,1,2,52005,108277,77416,-56,-254,968
05.10.2024 20:25:50:219,1590,0,1,2,52012,108277,77410,-56,-259,961
05.10.2024 20:25:50:223,1591,0,1,2,52011,108275,77412,-61,-259,967
05.10.2024 20:25:50:227,1592,0,1,2,52014,108270,77411,-57,-251,964
05.10.2024 20:25:50:231,1593,0,1,2,52013,108270,77410,-55,-254,966
05.10.2024 20:25:50:235,1594,0,1,2,52015,108264,77410,-56,-255,965
05.10.2024 20:25:50:239,1595,0,1,2,52018,108263,77405,-54,-258,961
05.10.2024 20:25:50:243,1596,0,1,2,52017,108261,77402,-58,-252,966
05.10.2024 20:25:50:246,1597,0,1,2,52008,108264,77400,-53,-256,964
05.10.2024 20:25:50:250,1598,0,1,2,52012,108258,77402,-56,-260,969
05.10.2024 20:25:50:254,1599,0,1,2,52013,108250,77399,-54,-254,966
05.10.2024 20:25:50:258,1600,0,1,2,52016,108252,77398,-53,-254,961
05.10.2024 20:25:50:262,1601,0,1,2,52014,108250,77396,-54,-261,959
05.10.2024 20:25:50:266,1602,0,1,2,52010,108249,77389,-54,-255,971
05.10.2024 20:25:50:270,1603,0,1,2,52014,108251,77394,-54,-251,970
05.10.2024 20:25:50:274,1604,0,1,2,52017,108249,77391,-57,-254,961
05.10.2024 20:25:50:278,1605,0,1,2,52015,108244,77386,-58,-253,964
05.10.2024 20:25:50:282,1606,0,1,2,52016,108244,77394,-56,-255,966
05.10.2024 20:25:50:285,1607,0,1,2,52014,108245,77391,-59,-256,963
05.10.2024 20:25:50:289,1608,0,1,2,52014,108242,77391,-57,-255,963
05.10.2024 20:25:50:293,1609,0,1,2,52014,108247,77388,-56,-253,963
05.10.2024 20:25:50:297,1610,0,1,2,52008,108247,77390,-55,-253,964
05.10.2024 20:25:50:301,1611,0,1,2,52014,108241,77386,-58,-250,967
05.10.2024 20:25:50:305,1612,0,1,2,52016,108243,77389,-57,-249,969
05.10.2024 20:25:50:309,1613,0,1,2,52015,108245,77389,-53,-260,963
05.10.2024 20:25:50:313,1614,0,1,2,52016,108247,77387,-54,-252,965
05.10.2024 20:25:50:317,1615,0,1,2,52017,108245,77387,-58,-250,968
05.10.2024 20:25:50:321,1616,0,1,2,52014,108239,77385,-56,-257,965
05.10.2024 20:25:50:325,1617,0,1,2,52020,108242,77383,-59,-252,962
05.10.2024 20:25:50:328,1618,0,1,2,52021,108240,77385,-58,-258,970
05.10.2024 20:25:50:332,1619,0,1,2,52021,108239,77380,-57,-254,968
05.10.2024 20:25:50:336,1620,0,1,2,52024,108234,77379,-56,-255,960
05.10.2024 20:25:50:340,1621,0,1,2,52028,108236,77379,-56,-249,962
05.10.2024 20:25:50:344,1622,0,1,2,52028,108232,77377,-49,-254,961
05.10.2024 20:25:50:348,1623,0,1,2,52029,108233,77373,-54,-256,969
05.10.2024 20:25:50:352,1624,0,1,2,52038,108231,77371,-56,-257,962
05.10.2024 20:25:50:356,1625,0,1,2,52035,108225,77371,-54,-256,965
05.10.2024 20:25:50:360,1626,0,1,2,52035,108222,77374,-56,-256,967
05.10.2024 20:25:50:364,1627,0,1,2,52037,108228,77369,-50,-256,962
05.10.2024 20:25:50:367,1628,0,1,2,52045,108223,77370,-54,-258,965
05.10.2024 20:25:50:371,1629,0,1,2,52046,108221,77365,-51,-256,963
05.10.2024 20:25:50:375,1630,0,1,2,52043,108220,77364,-57,-261,966
05.10.2024 20:25:50:379,1631,0,1,2,52051,108217,77365,-53,-255,963
05.10.2024 20:25:50:383,1632,0,1,2,52056,108219,77363,-56,-259,968
05.10.2024 20:25:50:387,1633,0,1,2,52056,108216,77364,-58,-253,965
05.10.2024 20:25:50:391,1634,0,1,2,52059,108215,77359,-64,-253,962
05.10.2024 20:25:50:395,1635,0,1,2,52057,108216,77359,-56,-257,964
05.10.2024 20:25:50:399,1636,0,1,2,52060,108210,77359,-59,-257,966
05.10.2024 20:25:50:403,1637,0,1,2,52067,108212,77355,-58,-263,961
05.10.2024 20:25:50:406,1638,0,1,2,52063,108210,77354,-49,-258,962
05.10.2024 20:25:50:410,1639,0,1,2,52071,108209,77354,-58,-253,963
05.10.2024 20:25:50:414,1640,0,1,2,52071,108207,77354,-58,-255,961
05.10.2024 20:25:50:418,1641,0,1,2,52077,108207,77357,-56,-259,965
05.10.2024 20:25:50:422,1642,0,1,2,52075,108209,77351,-58,-255,963
05.10.2024 20:25:50:426,1643,0,1,2,52079,108209,77350,-58,-257,967
05.10.2024 20:25:50:430,1644,0,1,2,52080,108210,77354,-52,-253,964
05.10.2024 20:25:50:434,1645,0,1,2,52079,108207,77352,-54,-253,961
05.10.2024 20:25:50:438,1646,0,1,2,52086,108205,77349,-57,-253,964
05.10.2024 20:25:50:442,1647,0,1,2,52090,108204,77353,-58,-257,960
05.10.2024 20:25:50:445,1648,0,1,2,52092,108212,77349,-53,-256,964
05.10.2024 20:25:50:449,1649,0,1,2,52090,108209,77346,-54,-254,962
05.10.2024 20:25:50:453,1650,0,1,2,52091,108208,77351,-50,-254,961
05.10.2024 20:25:50:457,1651,0,1,2,52093,108202,77351,-58,-248,966
05.10.2024 20:25:50:461,1652,0,1,2,52095,108210,77345,-53,-248,963
05.10.2024 20:25:50:465,1653,0,1,2,52092,108207,77344,-51,-252,963
05.10.2024 20:25:50:469,1654,0,1,2,52098,108211,77346,-56,-249,967
05.10.2024 20:25:50:473,1655,0,1,2,52103,108205,77346,-57,-254,961
05.10.2024 20:25:50:477,1656,0,1,2,52104,108203,77346,-55,-256,967
05.10.2024 20:25:50:481,1657,0,1,2,52108,108203,77339,-54,-255,965
05.10.2024 20:25:50:485,1658,0,1,2,52104,108200,77337,-50,-250,964
05.10.2024 20:25:50:488,1659,0,1,2,52107,108202,77339,-53,-252,966
05.10.2024 20:25:50:492,1660,0,1,2,52108,108201,77341,-56,-249,970
05.10.2024 20:25:50:496,1661,0,1,2,52121,108194,77337,-59,-254,967
05.10.2024 20:25:50:500,1662,0,1,2,52117,108190,77335,-54,-255,967
05.10.2024 20:25:50:504,1663,0,1,2,52119,108191,77333,-59,-260,965
05.10.2024 20:25:50:508,1664,0,1,2,52122,108182,77330,-60,-263,963
05.10.2024 20:25:50:512,1665,0,1,2,52125,108191,77333,-57,-260,963
05.10.2024 20:25:50:516,1666,0,1,2,52130,108190,77331,-54,-255,964
05.10.2024 20:25:50:520,1667,0,1,2,52131,108189,77327,-53,-251,966
05.10.2024 20:25:50:524,1668,0,1,2,52131,108184,77325,-57,-259,960
05.10.2024 20:25:50:527,1669,0,1,2,52134,108183,77329,-61,-252,963
05.10.2024 20:25:50:531,1670,0,1,2,52136,108192,77325,-59,-253,961
05.10.2024 20:25:50:535,1671,0,1,2,52133,108184,77323,-52,-262,965
05.10.2024 20:25:50:539,1672,0,1,2,52139,108189,77328,-56,-257,963
05.10.2024 20:25:50:543,1673,0,1,2,52141,108192,77331,-59,-255,964
05.10.2024 20:25:50:547,1674,0,1,2,52148,108186,77327,-55,-254,962
05.10.2024 20:25:50:551,1675,0,1,2,52153,108188,77328,-53,-252,967
05.10.2024 20:25:50:555,1676,0,1,2,52155,108192,77329,-54,-252,965
05.10.2024 20:25:50:559,1677,0,1,2,52152,108188,77322,-51,-254,968
05.10.2024 20:25:50:563,1678,0,1,2,52157,108185,77321,-47,-254,968
05.10.2024 20:25:50:566,1679,0,1,2,52159,108184,77321,-50,-248,970
05.10.2024 20:25:50:570,1680,0,1,2,52167,108180,77318,-54,-248,966
05.10.2024 20:25:50:574,1681,0,1,2,52166,108181,77315,-51,-249,960
05.10.2024 20:25:50:578,1682,0,1,2,52169,108178,77319,-54,-250,968
05.10.2024 20:25:50:582,1683,0,1,2,52167,108171,77311,-51,-248,966
05.10.2024 20:25:50:586,1684,0,1,2,52169,108175,77309,-53,-251,965
05.10.2024 20:25:50:590,1685,0,1,2,52178,108170,77312,-58,-254,960
05.10.2024 20:25:50:594,1686,0,1,2,52176,108166,77304,-50,-254,961
05.10.2024 20:25:50:598,1687,0,1,2,52165,108165,77300,-58,-257,962
05.10.2024 20:25:50:602,1688,0,1,2,52175,108158,77301,-62,-254,963
05.10.2024 20:25:50:605,1689,0,1,2,52172,108155,77300,-58,-259,967
05.10.2024 20:25:50:609,1690,0,1,2,52173,108155,77297,-59,-254,964
05.10.2024 20:25:50:613,1691,0,1,2,52169,108151,77294,-58,-257,963
05.10.2024 20:25:50:617,1692,0,1,2,52165,108143,77286,-60,-264,967
05.10.2024 20:25:50:621,1693,0,1,2,52156,108144,77287,-56,-262,968
05.10.2024 20:25:50:625,1694,0,1,2,52155,108146,77289,-58,-262,960
05.10.2024 20:25:50:629,1695,0,1,2,52153,108137,77285,-57,-256,966
05.10.2024 20:25:50:633,1696,0,1,2,52146,108137,77284,-55,-255,972
05.10.2024 20:25:50:637,1697,0,1,2,52139,108131,77283,-54,-253,969
05.10.2024 20:25:50:641,1698,0,1,2,52137,108135,77287,-63,-257,963
05.10.2024 20:25:50:645,1699,0,1,2,52133,108134,77287,-61,-253,967
05.10.2024 20:25:50:648,1700,0,1,2,52127,108132,77288,-50,-189,962
05.10.2024 20:25:50:652,1701,0,1,2,52118,108133,77289,-59,-253,963
05.10.2024 20:25:50:656,1702,0,1,2,52114,108133,77289,-55,-258,961
05.10.2024 20:25:50:660,1703,0,1,2,52110,108128,77292,-58,-248,965
05.10.2024 20:25:50:664,1704,0,1,2,52104,108131,77287,-58,-249,967
05.10.2024 20:25:50:668,1705,0,1,2,52099,108123,77285,-56,-255,967
05.10.2024 20:25:50:672,1706,0,1,2,52101,108128,77288,-52,-262,966
05.10.2024 20:25:50:676,1707,0,1,2,52088,108124,77282,-57,-256,964
05.10.2024 20:25:50:680,1708,0,1,2,52088,108126,77290,-55,-256,964
05.10.2024 20:25:50:684,1709,0,1,2,52085,108127,77286,-55,-252,962
05.10.2024 20:25:50:687,1710,0,1,2,52084,108123,77289,-54,-247,966
05.10.2024 20:25:50:691,1711,0,1,2,52076,108124,77289,-56,-259,969
05.10.2024 20:25:50:695,1712,0,1,2,52074,108127,77289,-53,-259,966
05.10.2024 20:25:50:699,1713,0,1,2,52068,108124,77292,-52,-255,967
05.10.2024 20:25:50:703,1714,0,1,2,52067,108129,77290,-54,-254,964
05.10.2024 20:25:50:707,1715,0,1,2,52071,108129,77291,-53,-252,965
05.10.2024 20:25:50:711,1716,0,1,2,52061,108132,77289,-56,-250,962
05.10.2024 20:25:50:715,1717,0,1,2,52070,108134,77295,-51,-253,967
05.10.2024 20:25:50:719,1718,0,1,2,52070,108128,77296,-53,-256,964
05.10.2024 20:25:50:723,1719,0,1,2,52071,108131,77297,-54,-257,967
05.10.2024 20:25:50:726,1720,0,1,2,52071,108130,77299,-55,-251,966
05.10.2024 20:25:50:730,1721,0,1,2,52075,108128,77300,-55,-251,966
05.10.2024 20:25:50:734,1722,0,1,2,52074,108138,77298,-55,-250,964
05.10.2024 20:25:50:738,1723,0,1,2,52076,108132,77297,-54,-253,964
05.10.2024 20:25:50:742,1724,0,1,2,52077,108132,77297,-51,-248,964
05.10.2024 20:25:50:746,1725,0,1,2,52082,108135,77303,-55,-250,966
05.10.2024 20:25:50:750,1726,0,1,2,52080,108139,77301,-57,-247,958
05.10.2024 20:25:50:754,1727,0,1,2,52082,108138,77302,-58,-245,955
05.10.2024 20:25:50:758,1728,0,1,2,52090,108139,77302,-60,-249,960
05.10.2024 20:25:50:762,1729,0,1,2,52088,108130,77303,-63,-255,966
05.10.2024 20:25:50:765,1730,0,1,2,52091,108142,77303,-65,-249,963
05.10.2024 20:25:50:769,1731,0,1,2,52094,108139,77303,-62,-248,965
05.10.2024 20:25:50:773,1732,0,1,2,52097,108137,77305,-60,-255,963
05.10.2024 20:25:50:777,1733,0,1,2,52095,108133,77306,-60,-252,965
05.10.2024 20:25:50:781,1734,0,1,2,52102,108132,77302,-58,-257,965
05.10.2024 20:25:50:785,1735,0,1,2,52105,108130,77298,-59,-258,967
05.10.2024 20:25:50:789,1736,0,1,2,52112,108132,77301,-59,-248,965
05.10.2024 20:25:50:793,1737,0,1,2,52114,108134,77300,-60,-255,968
05.10.2024 20:25:50:797,1738,0,1,2,52120,108137,77304,-58,-252,969
05.10.2024 20:25:50:801,1739,0,1,2,52118,108136,77307,-57,-252,967
05.10.2024 20:25:50:805,1740,0,1,2,52119,108137,77305,-56,-253,969
05.10.2024 20:25:50:808,1741,0,1,2,52124,108139,77302,-55,-252,971
05.10.2024 20:25:50:812,1742,0,1,2,52124,108142,77306,-61,-256,971
05.10.2024 20:25:50:816,1743,0,1,2,52127,108138,77305,-52,-249,965
05.10.2024 20:25:50:820,1744,0,1,2,52117,108139,77309,-52,-249,966
05.10.2024 20:25:50:824,1745,0,1,2,52128,108145,77311,-55,-251,966
05.10.2024 20:25:50:828,1746,0,1,2,52133,108138,77310,-55,-251,966
05.10.2024 20:25:50:832,1747,0,1,2,52132,108144,77305,-51,-248,964
05.10.2024 20:25:50:836,1748,0,1,2,52135,108141,77307,-56,-249,962
05.10.2024 20:25:50:840,1749,0,1,2,52138,108141,77306,-55,-245,969
05.10.2024 20:25:50:844,1750,0,1,2,52141,108138,77309,-61,-246,966
05.10.2024 20:25:50:847,1751,0,1,2,52136,108136,77309,-58,-247,967
05.10.2024 20:25:50:851,1752,0,1,2,52137,108137,77304,-57,-247,966
05.10.2024 20:25:50:855,1753,0,1,2,52131,108131,77303,-60,-251,966
05.10.2024 20:25:50:859,1754,0,1,2,52143,108130,77300,-58,-254,966
05.10.2024 20:25:50:863,1755,0,1,2,52134,108128,77298,-57,-257,966
05.10.2024 20:25:50:867,1756,0,1,2,52136,108128,77293,-59,-251,966
05.10.2024 20:25:50:871,1757,0,1,2,52135,108128,77293,-56,-253,965
05.10.2024 20:25:50:875,1758,0,1,2,52137,108124,77292,-59,-255,964
05.10.2024 20:25:50:879,1759,0,1,2,52140,108122,77287,-56,-254,965
05.10.2024 20:25:50:883,1760,0,1,2,52140,108122,77291,-56,-254,963
05.10.2024 20:25:50:886,1761,0,1,2,52136,108116,77290,-56,-254,963
05.10.2024 20:25:50:890,1762,0,1,2,52141,108115,77287,-53,-254,967
05.10.2024 20:25:50:894,1763,0,1,2,52131,108115,77284,-64,-254,961
05.10.2024 20:25:50:898,1764,0,1,2,52141,108114,77283,-60,-252,970
05.10.2024 20:25:50:902,1765,0,1,2,52135,108110,77286,-56,-251,965
05.10.2024 20:25:50:906,1766,0,1,2,52136,108115,77286,-59,-250,960
05.10.2024 20:25:50:910,1767,0,1,2,52132,108112,77281,-63,-253,959
05.10.2024 20:25:50:914,1768,0,1,2,52138,108121,77283,-56,-250,964
05.10.2024 20:25:50:918,1769,0,1,2,52138,108119,77286,-56,-244,964
05.10.2024 20:25:50:922,1770,0,1,2,52132,108114,77283,-55,-249,961
05.10.2024 20:25:50:925,1771,0,1,2,52126,108110,77284,-55,-249,961
05.10.2024 20:25:50:929,1772,0,1,2,52129,108108,77279,-52,-244,970
05.10.2024 20:25:50:933,1773,0,1,2,52127,108107,77281,-58,-252,968
05.10.2024 20:25:50:937,1774,0,1,2,52131,108103,77275,-52,-252,971
05.10.2024 20:25:50:941,1775,0,1,2,52129,108101,77273,-57,-257,962
05.10.2024 20:25:50:945,1776,0,1,2,52123,108097,77274,-54,-259,963
05.10.2024 20:25:50:949,1777,0,1,2,52126,108093,77269,-55,-253,965
05.10.2024 20:25:50:953,1778,0,1,2,52128,108095,77266,-51,-258,963
05.10.2024 20:25:50:957,1779,0,1,2,52130,108093,77264,-58,-256,968
05.10.2024 20:25:50:961,1780,0,1,2,52128,108091,77265,-58,-262,963
05.10.2024 20:25:50:964,1781,0,1,2,52129,108088,77267,-57,-258,965
05.10.2024 20:25:50:968,1782,0,1,2,52130,108090,77265,-54,-259,965
05.10.2024 20:25:50:972,1783,0,1,2,52129,108085,77268,-51,-254,960
05.10.2024 20:25:50:976,1784,0,1,2,52134,108093,77263,-51,-255,962
05.10.2024 20:25:50:980,1785,0,1,2,52136,108094,77265,-51,-250,967
05.10.2024 20:25:50:984,1786,0,1,2,52136,108089,77267,-58,-248,962
05.10.2024 20:25:50:988,1787,0,1,2,52135,108097,77265,-57,-247,964
05.10.2024 20:25:50:992,1788,0,1,2,52137,108091,77265,-59,-246,963
05.10.2024 20:25:50:996,1789,0,1,2,52137,108090,77273,-58,-248,965
05.10.2024 20:25:51:0,1790,0,1,2,52136,108092,77267,-58,-249,966
05.10.2024 20:25:51:4,1791,0,1,2,52145,108090,77265,-55,-248,961
05.10.2024 20:25:51:7,1792,0,1,2,52147,108086,77264,-58,-249,969
05.10.2024 20:25:51:11,1793,0,1,2,52148,108091,77261,-53,-246,967
05.10.2024 20:25:51:15,1794,0,1,2,52149,108089,77260,-55,-252,967
05.10.2024 20:25:51:19,1795,0,1,2,52150,108088,77263,-56,-253,962
05.10.2024 20:25:51:23,1796,0,1,2,52155,108087,77259,-56,-253,962
05.10.2024 20:25:51:27,1797,0,1,2,52159,108084,77258,-59,-254,967
05.10.2024 20:25:51:31,1798,0,1,2,52157,108081,77256,-56,-249,968
05.10.2024 20:25:51:35,1799,0,1,2,52161,108078,77258,-56,-250,957
05.10.2024 20:25:51:39,1800,0,1,2,52164,108082,77257,-61,-254,962
05.10.2024 20:25:51:43,1801,0,1,2,52167,108077,77258,-60,-249,965
05.10.2024 20:25:51:46,1802,0,1,2,52167,108081,77259,-55,-256,961
05.10.2024 20:25:51:50,1803,0,1,2,52168,108080,77257,-59,-263,962
05.10.2024 20:25:51:54,1804,0,1,2,52171,108074,77256,-56,-251,962
05.10.2024 20:25:51:58,1805,0,1,2,52175,108080,77256,-54,-255,962
05.10.2024 20:25:51:62,1806,0,1,2,52178,108077,77260,-54,-258,968
05.10.2024 20:25:51:66,1807,0,1,2,52181,108083,77261,-57,-247,964
05.10.2024 20:25:51:70,1808,0,1,2,52185,108086,77260,-58,-248,966
